time,ax,ay,az,wx,wy,wz,
0.002,-0.94,0.41,-1.32,-0.35,-1.01,0.18,
0.003,-0.94,0.41,-1.32,-0.40,-1.04,0.19,
0.003,-0.99,0.54,-1.42,-0.40,-1.04,0.19,
0.004,-0.99,0.54,-1.42,-0.46,-1.06,0.20,
0.006,-0.99,0.54,-1.42,-0.52,-1.08,0.22,
0.006,-0.99,0.54,-1.42,-0.57,-1.09,0.23,
0.006,-0.99,0.55,-1.40,-0.57,-1.09,0.23,
0.006,-0.99,0.55,-1.40,-0.62,-1.11,0.24,
0.007,-0.99,0.55,-1.40,-0.68,-1.11,0.25,
0.007,-0.95,0.54,-1.22,-0.68,-1.11,0.25,
0.007,-0.95,0.54,-1.22,-0.73,-1.12,0.26,
0.007,-0.95,0.54,-1.22,-0.77,-1.13,0.27,
0.012,-0.89,0.49,-0.97,-0.77,-1.13,0.27,
0.012,-0.89,0.49,-0.97,-0.81,-1.14,0.27,
0.012,-0.89,0.49,-0.97,-0.85,-1.14,0.29,
0.016,-0.82,0.36,-0.69,-0.85,-1.14,0.29,
0.017,-0.82,0.36,-0.69,-0.89,-1.15,0.29,
0.017,-0.82,0.36,-0.69,-0.92,-1.15,0.29,
0.021,-0.73,0.17,-0.40,-0.92,-1.15,0.29,
0.021,-0.73,0.17,-0.40,-0.94,-1.16,0.30,
0.022,-0.73,0.17,-0.40,-0.97,-1.16,0.30,
0.025,-0.60,-0.14,-0.25,-0.97,-1.16,0.30,
0.027,-0.60,-0.14,-0.25,-0.99,-1.14,0.30,
0.028,-0.60,-0.14,-0.25,-1.01,-1.12,0.29,
0.043,-0.60,-0.14,-0.25,-1.03,-1.07,0.29,
0.044,-0.60,-0.14,-0.25,-1.05,-1.00,0.28,
0.044,-0.60,-0.14,-0.25,-1.08,-0.92,0.27,
0.045,-0.47,-0.71,-0.59,-1.08,-0.92,0.27,
0.045,-0.23,-0.09,-1.29,-1.08,-0.92,0.27,
0.045,-0.23,-0.09,-1.29,-1.11,-0.83,0.25,
0.045,0.08,0.07,-1.48,-1.11,-0.83,0.25,
0.046,0.08,0.07,-1.48,-1.14,-0.75,0.23,
0.046,0.08,0.07,-1.48,-1.17,-0.68,0.21,
0.046,0.08,0.07,-1.48,-1.20,-0.63,0.18,
0.046,0.42,0.12,-1.11,-1.20,-0.63,0.18,
0.05,0.42,0.12,-1.11,-1.22,-0.60,0.16,
0.051,0.57,0.19,-0.33,-1.22,-0.60,0.16,
0.051,0.57,0.19,-0.33,-1.24,-0.57,0.13,
0.052,0.57,0.19,-0.33,-1.25,-0.56,0.11,
0.056,0.51,0.06,0.44,-1.25,-0.56,0.11,
0.056,0.51,0.06,0.44,-1.26,-0.56,0.09,
0.057,0.51,0.06,0.44,-1.26,-0.57,0.07,
0.061,0.32,-0.08,1.05,-1.26,-0.57,0.07,
0.062,0.32,-0.08,1.05,-1.25,-0.58,0.04,
0.062,0.32,-0.08,1.05,-1.24,-0.58,0.02,
0.065,0.11,-0.06,1.37,-1.24,-0.58,0.02,
0.066,0.11,-0.06,1.37,-1.21,-0.58,0.00,
0.068,0.11,-0.06,1.37,-1.17,-0.54,-0.02,
0.07,-0.47,0.43,0.58,-1.17,-0.54,-0.02,
0.07,-0.47,0.43,0.58,-1.10,-0.41,-0.03,
0.073,-0.47,0.43,0.58,-1.02,-0.17,-0.02,
0.076,-3.01,2.18,-2.22,-1.02,-0.17,-0.02,
0.077,-3.01,2.18,-2.22,-0.96,0.10,0.05,
0.077,-3.01,2.18,-2.22,-0.89,0.28,0.13,
0.08,-3.04,2.68,-0.82,-0.89,0.28,0.13,
0.081,-3.04,2.68,-0.82,-0.82,0.38,0.19,
0.084,-3.04,2.68,-0.82,-0.74,0.43,0.26,
0.086,-2.41,2.50,0.21,-0.74,0.43,0.26,
0.087,-2.41,2.50,0.21,-0.67,0.48,0.32,
0.087,-2.41,2.50,0.21,-0.60,0.52,0.38,
0.092,-2.28,2.43,0.22,-0.60,0.52,0.38,
0.092,-2.28,2.43,0.22,-0.54,0.54,0.44,
0.093,-2.28,2.43,0.22,-0.49,0.55,0.50,
0.102,-2.08,2.36,0.28,-0.49,0.55,0.50,
0.103,-2.08,2.36,0.28,-0.44,0.56,0.56,
0.104,-2.08,2.36,0.28,-0.40,0.55,0.62,
0.104,-2.08,2.36,0.28,-0.37,0.53,0.67,
0.105,-1.78,2.16,0.38,-0.37,0.53,0.67,
0.105,-1.78,2.16,0.38,-0.35,0.47,0.72,
0.106,-1.41,1.75,1.18,-0.35,0.47,0.72,
0.106,-1.41,1.75,1.18,-0.33,0.37,0.77,
0.108,-1.41,1.75,1.18,-0.31,0.23,0.81,
0.112,-0.71,1.06,2.71,-0.31,0.23,0.81,
0.113,-0.71,1.06,2.71,-0.30,0.03,0.83,
0.113,-0.71,1.06,2.71,-0.30,-0.22,0.85,
0.116,0.23,0.20,4.18,-0.30,-0.22,0.85,
0.117,0.23,0.20,4.18,-0.31,-0.51,0.86,
0.117,0.23,0.20,4.18,-0.32,-0.80,0.85,
0.121,0.81,-0.49,4.08,-0.32,-0.80,0.85,
0.122,0.81,-0.49,4.08,-0.35,-1.07,0.84,
0.122,0.81,-0.49,4.08,-0.39,-1.28,0.82,
0.127,0.74,-0.64,2.43,-0.39,-1.28,0.82,
0.127,0.74,-0.64,2.43,-0.43,-1.43,0.81,
0.13,0.74,-0.64,2.43,-0.47,-1.53,0.80,
0.131,0.40,-0.49,0.63,-0.47,-1.53,0.80,
0.131,0.40,-0.49,0.63,-0.52,-1.58,0.80,
0.133,0.40,-0.49,0.63,-0.57,-1.58,0.80,
0.136,-0.04,-0.14,-0.95,-0.57,-1.58,0.80,
0.137,-0.04,-0.14,-0.95,-0.62,-1.56,0.82,
0.137,-0.04,-0.14,-0.95,-0.67,-1.51,0.85,
0.14,-0.27,0.09,-1.84,-0.67,-1.51,0.85,
0.141,-0.27,0.09,-1.84,-0.71,-1.45,0.88,
0.143,-0.27,0.09,-1.84,-0.76,-1.39,0.91,
0.146,-0.27,0.09,-1.84,-0.80,-1.35,0.95,
0.148,-0.07,-0.01,-1.75,-0.80,-1.35,0.95,
0.149,-0.07,-0.01,-1.75,-0.84,-1.34,0.98,
0.151,0.72,-0.47,-0.96,-0.84,-1.34,0.98,
0.153,0.72,-0.47,-0.96,-0.89,-1.35,0.99,
0.162,0.72,-0.47,-0.96,-0.93,-1.38,1.00,
0.163,0.72,-0.47,-0.96,-0.97,-1.42,0.99,
0.169,0.72,-0.47,-0.96,-1.00,-1.47,0.98,
0.169,0.72,-0.47,-0.96,-1.03,-1.51,0.95,
0.17,0.72,-0.47,-0.96,-1.06,-1.55,0.91,
0.171,0.72,-0.47,-0.96,-1.09,-1.58,0.86,
0.171,0.72,-0.47,-0.96,-1.12,-1.60,0.81,
0.172,0.72,-0.47,-0.96,-1.15,-1.60,0.75,
0.174,0.72,-0.47,-0.96,-1.17,-1.59,0.69,
0.175,1.72,-1.09,-0.31,-1.17,-1.59,0.69,
0.175,2.53,-1.73,0.22,-1.17,-1.59,0.69,
0.176,3.05,-2.37,0.37,-1.17,-1.59,0.69,
0.176,3.25,-2.91,0.21,-1.17,-1.59,0.69,
0.176,3.18,-3.34,-0.19,-1.17,-1.59,0.69,
0.177,3.18,-3.34,-0.19,-1.19,-1.57,0.62,
0.184,3.18,-3.34,-0.19,-1.21,-1.53,0.56,
0.185,1.99,-3.75,1.29,-1.21,-1.53,0.56,
0.185,1.99,-3.75,1.29,-1.20,-1.52,0.51,
0.185,1.99,-3.75,1.29,-1.08,-1.60,0.51,
0.186,-2.62,-3.17,11.01,-1.08,-1.60,0.51,
0.186,-2.62,-3.17,11.01,-0.82,-1.78,0.57,
0.189,-2.62,-3.17,11.01,-0.64,-1.91,0.63,
0.191,-1.89,-2.68,6.71,-0.64,-1.91,0.63,
0.191,-1.89,-2.68,6.71,-0.51,-1.96,0.67,
0.193,-1.89,-2.68,6.71,-0.39,-2.00,0.70,
0.199,-0.33,-2.54,4.84,-0.39,-2.00,0.70,
0.2,-0.33,-2.54,4.84,-0.27,-2.02,0.74,
0.2,-0.33,-2.54,4.84,-0.13,-2.02,0.77,
0.201,-0.32,-1.53,4.74,-0.13,-2.02,0.77,
0.201,-0.32,-1.53,4.74,0.01,-2.00,0.81,
0.202,-0.32,-1.53,4.74,0.15,-1.96,0.85,
0.207,0.03,-0.54,4.38,0.15,-1.96,0.85,
0.207,0.03,-0.54,4.38,0.30,-1.93,0.89,
0.207,0.03,-0.54,4.38,0.44,-1.91,0.92,
0.215,0.86,0.19,4.21,0.44,-1.91,0.92,
0.216,0.86,0.19,4.21,0.59,-1.89,0.94,
0.217,0.86,0.19,4.21,0.73,-1.87,0.97,
0.217,1.40,0.57,3.41,0.73,-1.87,0.97,
0.217,1.40,0.57,3.41,0.86,-1.83,0.98,
0.218,1.40,0.57,3.41,0.98,-1.76,1.00,
0.222,1.49,0.39,2.06,0.98,-1.76,1.00,
0.222,1.49,0.39,2.06,1.08,-1.65,1.00,
0.223,1.49,0.39,2.06,1.18,-1.51,1.00,
0.226,1.57,-0.02,0.38,1.18,-1.51,1.00,
0.226,1.57,-0.02,0.38,1.25,-1.34,0.99,
0.229,1.57,-0.02,0.38,1.31,-1.14,0.97,
0.231,1.99,-0.64,-1.04,1.31,-1.14,0.97,
0.232,1.99,-0.64,-1.04,1.35,-0.95,0.94,
0.233,1.99,-0.64,-1.04,1.38,-0.75,0.90,
0.235,2.66,-1.52,-1.73,1.38,-0.75,0.90,
0.235,2.66,-1.52,-1.73,1.39,-0.57,0.85,
0.238,2.66,-1.52,-1.73,1.39,-0.41,0.78,
0.241,3.51,-2.08,-2.14,1.39,-0.41,0.78,
0.242,3.51,-2.08,-2.14,1.38,-0.30,0.71,
0.243,3.51,-2.08,-2.14,1.35,-0.20,0.62,
0.246,4.19,-2.26,-2.75,1.35,-0.20,0.62,
0.247,4.19,-2.26,-2.75,1.31,-0.12,0.53,
0.248,4.19,-2.26,-2.75,1.26,-0.05,0.44,
0.25,4.48,-2.24,-3.63,1.26,-0.05,0.44,
0.251,4.48,-2.24,-3.63,1.20,0.03,0.34,
0.254,4.48,-2.24,-3.63,1.12,0.11,0.24,
0.255,4.15,-2.03,-4.64,1.12,0.11,0.24,
0.256,4.15,-2.03,-4.64,1.03,0.20,0.14,
0.259,4.15,-2.03,-4.64,0.95,0.30,0.05,
0.261,3.47,-1.76,-5.21,0.95,0.30,0.05,
0.262,3.47,-1.76,-5.21,0.86,0.41,-0.03,
0.263,3.47,-1.76,-5.21,0.76,0.52,-0.11,
0.266,2.69,-1.53,-5.64,0.76,0.52,-0.11,
0.267,2.69,-1.53,-5.64,0.67,0.64,-0.18,
0.268,2.69,-1.53,-5.64,0.57,0.76,-0.25,
0.272,1.94,-1.21,-5.77,0.57,0.76,-0.25,
0.272,1.94,-1.21,-5.77,0.48,0.88,-0.30,
0.275,1.94,-1.21,-5.77,0.39,1.00,-0.35,
0.276,1.25,-0.96,-5.59,0.39,1.00,-0.35,
0.276,1.25,-0.96,-5.59,0.29,1.12,-0.39,
0.278,1.25,-0.96,-5.59,0.20,1.24,-0.42,
0.28,0.68,-0.77,-5.38,0.20,1.24,-0.42,
0.281,0.68,-0.77,-5.38,0.11,1.35,-0.44,
0.283,0.68,-0.77,-5.38,0.02,1.45,-0.46,
0.286,0.68,-0.77,-5.38,-0.07,1.54,-0.47,
0.287,0.28,-0.66,-4.87,-0.07,1.54,-0.47,
0.287,0.28,-0.66,-4.87,-0.16,1.61,-0.48,
0.291,0.05,-0.52,-4.23,-0.16,1.61,-0.48,
0.292,0.05,-0.52,-4.23,-0.24,1.67,-0.48,
0.293,0.05,-0.52,-4.23,-0.33,1.70,-0.48,
0.297,-0.07,-0.41,-3.59,-0.33,1.70,-0.48,
0.298,-0.07,-0.41,-3.59,-0.41,1.73,-0.48,
0.299,-0.07,-0.41,-3.59,-0.49,1.73,-0.48,
0.302,-0.12,-0.37,-2.92,-0.49,1.73,-0.48,
0.302,-0.12,-0.37,-2.92,-0.57,1.73,-0.49,
0.303,-0.12,-0.37,-2.92,-0.65,1.70,-0.49,
0.305,-0.02,-0.47,-2.36,-0.65,1.70,-0.49,
0.306,-0.02,-0.47,-2.36,-0.73,1.67,-0.50,
0.308,-0.02,-0.47,-2.36,-0.81,1.62,-0.52,
0.314,0.13,-0.63,-1.76,-0.81,1.62,-0.52,
0.315,0.13,-0.63,-1.76,-0.89,1.56,-0.55,
0.315,0.13,-0.63,-1.76,-0.96,1.48,-0.57,
0.316,0.32,-0.78,-1.16,-0.96,1.48,-0.57,
0.317,0.32,-0.78,-1.16,-1.04,1.39,-0.61,
0.319,0.32,-0.78,-1.16,-1.11,1.28,-0.64,
0.321,0.47,-0.80,-0.51,-1.11,1.28,-0.64,
0.321,0.47,-0.80,-0.51,-1.18,1.15,-0.68,
0.326,0.47,-0.80,-0.51,-1.24,1.01,-0.72,
0.326,0.51,-0.75,-0.04,-1.24,1.01,-0.72,
0.327,0.51,-0.75,-0.04,-1.31,0.87,-0.75,
0.328,0.51,-0.75,-0.04,-1.37,0.74,-0.78,
0.331,0.72,-0.44,0.21,-1.37,0.74,-0.78,
0.332,0.72,-0.44,0.21,-1.43,0.61,-0.81,
0.335,0.72,-0.44,0.21,-1.48,0.47,-0.84,
0.336,0.77,-0.12,0.80,-1.48,0.47,-0.84,
0.337,0.77,-0.12,0.80,-1.52,0.33,-0.87,
0.338,0.77,-0.12,0.80,-1.56,0.21,-0.90,
0.341,0.86,0.15,1.00,-1.56,0.21,-0.90,
0.342,0.86,0.15,1.00,-1.59,0.11,-0.93,
0.346,0.86,0.15,1.00,-1.62,0.03,-0.96,
0.349,0.79,0.27,1.20,-1.62,0.03,-0.96,
0.352,0.53,0.35,1.35,-1.62,0.03,-0.96,
0.354,0.53,0.35,1.35,-1.63,-0.05,-0.99,
0.354,0.53,0.35,1.35,-1.64,-0.11,-1.02,
0.355,0.53,0.35,1.35,-1.64,-0.15,-1.04,
0.355,0.53,0.35,1.35,-1.62,-0.16,-1.05,
0.356,-0.11,0.47,1.92,-1.62,-0.16,-1.05,
0.356,-0.11,0.47,1.92,-1.59,-0.11,-1.06,
0.358,-0.11,0.47,1.92,-1.53,-0.04,-1.06,
0.361,-1.25,0.71,2.07,-1.53,-0.04,-1.06,
0.362,-1.25,0.71,2.07,-1.47,0.02,-1.05,
0.363,-1.25,0.71,2.07,-1.40,0.07,-1.03,
0.365,-1.63,0.76,1.41,-1.40,0.07,-1.03,
0.366,-1.63,0.76,1.41,-1.32,0.11,-1.00,
0.368,-1.63,0.76,1.41,-1.23,0.15,-0.97,
0.371,-1.14,0.61,0.95,-1.23,0.15,-0.97,
0.371,-1.14,0.61,0.95,-1.14,0.22,-0.93,
0.373,-1.14,0.61,0.95,-1.05,0.29,-0.90,
0.378,-0.69,0.73,0.72,-1.05,0.29,-0.90,
0.379,-0.69,0.73,0.72,-0.95,0.38,-0.87,
0.38,-0.69,0.73,0.72,-0.85,0.49,-0.83,
0.381,-0.53,0.75,0.37,-0.85,0.49,-0.83,
0.382,-0.53,0.75,0.37,-0.75,0.60,-0.80,
0.386,-0.53,0.75,0.37,-0.64,0.72,-0.76,
0.386,-0.53,0.75,0.37,-0.53,0.85,-0.74,
0.387,-0.11,0.68,0.25,-0.53,0.85,-0.74,
0.389,-0.11,0.68,0.25,-0.42,0.97,-0.71,
0.391,0.41,0.42,0.30,-0.42,0.97,-0.71,
0.391,0.41,0.42,0.30,-0.31,1.09,-0.70,
0.393,0.41,0.42,0.30,-0.20,1.20,-0.69,
0.396,0.41,0.42,0.30,-0.08,1.29,-0.68,
0.397,0.84,0.13,0.69,-0.08,1.29,-0.68,
0.398,0.84,0.13,0.69,0.03,1.38,-0.68,
0.402,1.17,-0.21,1.17,0.03,1.38,-0.68,
0.403,1.17,-0.21,1.17,0.14,1.45,-0.70,
0.403,1.17,-0.21,1.17,0.25,1.52,-0.72,
0.406,1.35,-0.45,1.48,0.25,1.52,-0.72,
0.407,1.35,-0.45,1.48,0.36,1.58,-0.74,
0.408,1.35,-0.45,1.48,0.46,1.63,-0.76,
0.418,1.36,-0.56,1.71,0.46,1.63,-0.76,
0.419,1.36,-0.56,1.71,0.56,1.66,-0.79,
0.419,1.36,-0.56,1.71,0.66,1.69,-0.82,
0.42,1.18,-0.52,1.79,0.66,1.69,-0.82,
0.42,1.18,-0.52,1.79,0.75,1.70,-0.85,
0.421,1.18,-0.52,1.79,0.84,1.71,-0.88,
0.421,0.95,-0.39,1.94,0.84,1.71,-0.88,
0.422,0.95,-0.39,1.94,0.93,1.70,-0.92,
0.424,0.95,-0.39,1.94,1.01,1.66,-0.95,
0.426,0.77,-0.27,2.11,1.01,1.66,-0.95,
0.427,0.77,-0.27,2.11,1.09,1.61,-0.99,
0.429,0.77,-0.27,2.11,1.16,1.54,-1.02,
0.432,0.68,-0.20,2.26,1.16,1.54,-1.02,
0.432,0.68,-0.20,2.26,1.23,1.44,-1.06,
0.434,0.68,-0.20,2.26,1.30,1.33,-1.08,
0.436,0.81,0.28,2.60,1.30,1.33,-1.08,
0.437,0.81,0.28,2.60,1.36,1.20,-1.09,
0.438,0.81,0.28,2.60,1.42,1.07,-1.09,
0.442,0.36,0.81,2.71,1.42,1.07,-1.09,
0.443,0.36,0.81,2.71,1.48,0.95,-1.09,
0.446,0.36,0.81,2.71,1.55,0.83,-1.10,
0.447,-0.21,0.99,2.85,1.55,0.83,-1.10,
0.447,-0.21,0.99,2.85,1.62,0.71,-1.10,
0.449,-0.21,0.99,2.85,1.69,0.61,-1.11,
0.452,-0.40,0.78,2.83,1.69,0.61,-1.11,
0.453,-0.40,0.78,2.83,1.76,0.50,-1.12,
0.454,-0.40,0.78,2.83,1.83,0.39,-1.14,
0.457,-0.54,0.20,2.74,1.83,0.39,-1.14,
0.457,-0.54,0.20,2.74,1.89,0.28,-1.15,
0.458,-0.54,0.20,2.74,1.95,0.17,-1.15,
0.462,-0.71,-0.30,2.59,1.95,0.17,-1.15,
0.463,-0.71,-0.30,2.59,2.01,0.04,-1.15,
0.463,-0.71,-0.30,2.59,2.06,-0.08,-1.13,
0.467,-0.79,-0.53,2.37,2.06,-0.08,-1.13,
0.467,-0.79,-0.53,2.37,2.11,-0.21,-1.11,
0.468,-0.79,-0.53,2.37,2.16,-0.34,-1.08,
0.472,-0.95,-0.46,2.07,2.16,-0.34,-1.08,
0.472,-0.95,-0.46,2.07,2.19,-0.47,-1.04,
0.474,-0.95,-0.46,2.07,2.23,-0.59,-1.00,
0.478,-1.21,-0.28,1.68,2.23,-0.59,-1.00,
0.479,-1.21,-0.28,1.68,2.26,-0.71,-0.95,
0.48,-1.21,-0.28,1.68,2.28,-0.81,-0.91,
0.482,-1.21,-0.28,1.68,2.30,-0.90,-0.86,
0.482,-1.48,-0.17,1.21,2.30,-0.90,-0.86,
0.485,-1.48,-0.17,1.21,2.32,-0.98,-0.81,
0.486,-1.71,-0.12,0.80,2.32,-0.98,-0.81,
0.487,-1.71,-0.12,0.80,2.33,-1.04,-0.77,
0.489,-1.71,-0.12,0.80,2.34,-1.09,-0.73,
0.5,-1.90,-0.09,0.45,2.34,-1.09,-0.73,
0.501,-1.90,-0.09,0.45,2.35,-1.13,-0.68,
0.502,-1.97,-0.12,0.05,2.35,-1.13,-0.68,
0.503,-1.97,-0.12,0.05,2.35,-1.15,-0.64,
0.504,-1.97,-0.12,0.05,2.35,-1.17,-0.59,
0.504,-1.97,-0.12,0.05,2.35,-1.17,-0.54,
0.505,-2.02,-0.28,-0.38,2.35,-1.17,-0.54,
0.506,-2.02,-0.28,-0.38,2.34,-1.17,-0.48,
0.507,-2.02,-0.28,-0.38,2.33,-1.15,-0.42,
0.508,-2.02,-0.41,-0.75,2.33,-1.15,-0.42,
0.509,-2.02,-0.41,-0.75,2.31,-1.13,-0.36,
0.509,-2.02,-0.41,-0.75,2.29,-1.10,-0.30,
0.518,-1.96,-0.47,-1.02,2.29,-1.10,-0.30,
0.519,-1.96,-0.47,-1.02,2.27,-1.06,-0.24,
0.519,-1.96,-0.47,-1.02,2.25,-1.01,-0.17,
0.52,-1.83,-0.38,-1.29,2.25,-1.01,-0.17,
0.52,-1.83,-0.38,-1.29,2.24,-0.96,-0.10,
0.521,-1.83,-0.38,-1.29,2.22,-0.90,-0.02,
0.521,-1.80,-0.11,-1.51,2.22,-0.90,-0.02,
0.522,-1.80,-0.11,-1.51,2.21,-0.83,0.06,
0.525,-1.80,-0.11,-1.51,2.19,-0.76,0.14,
0.527,-1.71,0.05,-1.66,2.19,-0.76,0.14,
0.527,-1.71,0.05,-1.66,2.19,-0.70,0.22,
0.533,-1.71,0.05,-1.66,2.18,-0.64,0.30,
0.534,-1.67,0.27,-1.74,2.18,-0.64,0.30,
0.535,-1.67,0.27,-1.74,2.18,-0.59,0.39,
0.535,-1.67,0.27,-1.74,2.18,-0.55,0.47,
0.537,-1.67,0.42,-1.67,2.18,-0.55,0.47,
0.538,-1.67,0.42,-1.67,2.18,-0.53,0.55,
0.54,-1.67,0.42,-1.67,2.18,-0.52,0.63,
0.541,-1.74,0.49,-1.54,2.18,-0.52,0.63,
0.542,-1.74,0.49,-1.54,2.19,-0.52,0.70,
0.545,-1.74,0.49,-1.54,2.19,-0.53,0.78,
0.546,-1.95,0.53,-1.40,2.19,-0.53,0.78,
0.547,-1.95,0.53,-1.40,2.20,-0.56,0.85,
0.55,-1.95,0.53,-1.40,2.19,-0.61,0.91,
0.551,-2.25,0.43,-1.21,2.19,-0.61,0.91,
0.552,-2.25,0.43,-1.21,2.18,-0.68,0.97,
0.555,-2.25,0.43,-1.21,2.11,-0.80,0.98,
0.558,-1.56,-0.91,-2.31,2.11,-0.80,0.98,
0.558,-1.56,-0.91,-2.31,1.93,-0.97,0.93,
0.559,-1.56,-0.91,-2.31,1.64,-1.21,0.83,
0.564,-0.51,-1.98,-4.19,1.64,-1.21,0.83,
0.565,-0.51,-1.98,-4.19,1.28,-1.48,0.70,
0.565,-0.51,-1.98,-4.19,0.89,-1.74,0.56,
0.566,0.08,-1.89,-5.77,0.89,-1.74,0.56,
0.567,0.08,-1.89,-5.77,0.53,-1.94,0.40,
0.568,0.08,-1.89,-5.77,0.21,-2.08,0.25,
0.572,0.49,-1.62,-6.42,0.21,-2.08,0.25,
0.572,0.49,-1.62,-6.42,-0.04,-2.15,0.10,
0.575,0.49,-1.62,-6.42,-0.22,-2.18,-0.03,
0.579,0.34,-0.91,-6.00,-0.22,-2.18,-0.03,
0.579,0.34,-0.91,-6.00,-0.35,-2.19,-0.13,
0.58,0.34,-0.91,-6.00,-0.45,-2.25,-0.18,
0.583,-0.59,0.16,-4.85,-0.45,-2.25,-0.18,
0.584,-0.59,0.16,-4.85,-0.54,-2.34,-0.20,
0.584,-0.59,0.16,-4.85,-0.62,-2.43,-0.19,
0.587,-1.68,1.33,-4.30,-0.62,-2.43,-0.19,
0.588,-1.68,1.33,-4.30,-0.67,-2.50,-0.15,
0.59,-1.68,1.33,-4.30,-0.72,-2.54,-0.09,
0.592,-2.62,1.96,-4.45,-0.72,-2.54,-0.09,
0.593,-2.62,1.96,-4.45,-0.77,-2.53,-0.01,
0.596,-2.62,1.96,-4.45,-0.81,-2.48,0.09,
0.598,-3.32,1.97,-4.84,-0.81,-2.48,0.09,
0.598,-3.32,1.97,-4.84,-0.85,-2.40,0.20,
0.599,-3.32,1.97,-4.84,-0.89,-2.28,0.31,
0.601,-3.58,1.60,-5.22,-0.89,-2.28,0.31,
0.602,-3.58,1.60,-5.22,-0.93,-2.13,0.43,
0.603,-3.58,1.60,-5.22,-0.97,-1.96,0.55,
0.607,-3.31,1.07,-5.63,-0.97,-1.96,0.55,
0.607,-3.31,1.07,-5.63,-1.01,-1.77,0.66,
0.609,-3.31,1.07,-5.63,-1.06,-1.56,0.76,
0.616,-2.77,0.51,-5.52,-1.06,-1.56,0.76,
0.617,-2.77,0.51,-5.52,-1.09,-1.37,0.86,
0.618,-2.77,0.51,-5.52,-1.11,-1.28,0.95,
0.618,-2.82,-0.27,-3.31,-1.11,-1.28,0.95,
0.619,-2.82,-0.27,-3.31,-1.12,-1.34,1.05,
0.619,-2.82,-0.27,-3.31,-1.11,-1.48,1.14,
0.623,-2.66,-0.75,-1.65,-1.11,-1.48,1.14,
0.623,-2.66,-0.75,-1.65,-1.09,-1.66,1.24,
0.624,-2.66,-0.75,-1.65,-1.09,-1.85,1.34,
0.627,-2.12,-0.98,-1.17,-1.09,-1.85,1.34,
0.628,-2.12,-0.98,-1.17,-1.10,-2.07,1.44,
0.631,-2.12,-0.98,-1.17,-1.12,-2.29,1.55,
0.632,-1.89,-1.11,-3.41,-1.12,-2.29,1.55,
0.632,-1.89,-1.11,-3.41,-1.24,-2.32,1.66,
0.634,-1.89,-1.11,-3.41,-1.52,-1.95,1.76,
0.637,-1.24,-0.71,-7.94,-1.52,-1.95,1.76,
0.638,-1.24,-0.71,-7.94,-1.76,-1.63,1.84,
0.639,-1.24,-0.71,-7.94,-1.89,-1.50,1.90,
0.642,-0.77,-0.85,-4.99,-1.89,-1.50,1.90,
0.642,-0.77,-0.85,-4.99,-2.00,-1.31,1.95,
0.646,-0.77,-0.85,-4.99,-2.13,-0.98,1.99,
0.648,-0.77,-0.85,-4.99,-2.26,-0.59,2.02,
0.649,-0.23,-1.25,-6.61,-2.26,-0.59,2.02,
0.65,-0.23,-1.25,-6.61,-2.37,-0.21,2.03,
0.652,0.67,-1.45,-6.11,-2.37,-0.21,2.03,
0.653,0.67,-1.45,-6.11,-2.47,0.17,2.04,
0.655,0.67,-1.45,-6.11,-2.57,0.52,2.04,
0.656,1.74,-1.42,-5.03,-2.57,0.52,2.04,
0.662,1.74,-1.42,-5.03,-2.67,0.81,2.03,
0.663,1.74,-1.42,-5.03,-2.75,1.04,2.03,
0.664,2.30,-1.32,-2.87,-2.75,1.04,2.03,
0.665,2.30,-1.32,-2.87,-2.81,1.19,2.03,
0.665,2.30,-1.32,-2.87,-2.87,1.27,2.04,
0.667,2.36,-0.97,-0.72,-2.87,1.27,2.04,
0.669,2.36,-0.97,-0.72,-2.91,1.29,2.06,
0.669,2.36,-0.97,-0.72,-2.95,1.27,2.07,
0.672,3.14,-0.45,1.07,-2.95,1.27,2.07,
0.673,3.14,-0.45,1.07,-2.98,1.21,2.06,
0.674,3.14,-0.45,1.07,-2.99,1.12,2.05,
0.679,3.29,-0.17,2.39,-2.99,1.12,2.05,
0.68,3.29,-0.17,2.39,-2.99,1.01,2.03,
0.682,3.13,-0.20,3.01,-2.99,1.01,2.03,
0.682,3.13,-0.20,3.01,-2.98,0.89,2.01,
0.683,3.13,-0.20,3.01,-2.97,0.76,1.99,
0.685,3.13,-0.20,3.01,-2.96,0.63,1.96,
0.687,2.89,-0.68,2.97,-2.96,0.63,1.96,
0.688,2.89,-0.68,2.97,-2.94,0.51,1.93,
0.69,2.89,-0.68,2.97,-2.92,0.40,1.89,
0.692,2.54,-1.43,2.40,-2.92,0.40,1.89,
0.693,2.54,-1.43,2.40,-2.91,0.31,1.86,
0.696,2.54,-1.43,2.40,-2.89,0.23,1.82,
0.697,2.11,-2.14,1.60,-2.89,0.23,1.82,
0.697,2.11,-2.14,1.60,-2.88,0.18,1.79,
0.701,2.11,-2.14,1.60,-2.87,0.16,1.75,
0.702,1.54,-2.61,1.02,-2.87,0.16,1.75,
0.702,1.54,-2.61,1.02,-2.86,0.16,1.73,
0.704,1.54,-2.61,1.02,-2.84,0.18,1.71,
0.707,0.85,-2.82,0.64,-2.84,0.18,1.71,
0.708,0.85,-2.82,0.64,-2.83,0.24,1.72,
0.709,0.85,-2.82,0.64,-2.82,0.34,1.75,
0.717,0.19,-2.93,0.36,-2.82,0.34,1.75,
0.718,0.19,-2.93,0.36,-2.82,0.48,1.81,
0.719,0.19,-2.93,0.36,-2.81,0.67,1.90,
0.719,-0.45,-2.90,0.90,-2.81,0.67,1.90,
0.719,-0.45,-2.90,0.90,-2.80,0.83,1.99,
0.72,-0.45,-2.90,0.90,-2.78,0.96,2.08,
0.722,-0.75,-2.55,2.36,-2.78,0.96,2.08,
0.722,-0.75,-2.55,2.36,-2.75,1.05,2.16,
0.725,-0.75,-2.55,2.36,-2.71,1.12,2.24,
0.729,-0.64,-2.15,3.35,-2.71,1.12,2.24,
0.73,-0.64,-2.15,3.35,-2.66,1.17,2.32,
0.73,-0.64,-2.15,3.35,-2.60,1.21,2.40,
0.732,-0.35,-1.95,4.05,-2.60,1.21,2.40,
0.733,-0.35,-1.95,4.05,-2.53,1.24,2.48,
0.734,-0.35,-1.95,4.05,-2.45,1.26,2.55,
0.738,-0.10,-1.95,4.22,-2.45,1.26,2.55,
0.739,-0.10,-1.95,4.22,-2.37,1.28,2.61,
0.739,-0.10,-1.95,4.22,-2.28,1.30,2.67,
0.743,0.05,-2.02,4.26,-2.28,1.30,2.67,
0.743,0.05,-2.02,4.26,-2.18,1.32,2.73,
0.744,0.05,-2.02,4.26,-2.08,1.32,2.77,
0.748,-0.03,-1.94,4.58,-2.08,1.32,2.77,
0.749,-0.03,-1.94,4.58,-1.96,1.31,2.81,
0.749,-0.03,-1.94,4.58,-1.84,1.28,2.83,
0.753,-0.15,-1.89,4.94,-1.84,1.28,2.83,
0.754,-0.15,-1.89,4.94,-1.71,1.24,2.84,
0.754,-0.15,-1.89,4.94,-1.58,1.19,2.83,
0.757,-0.17,-1.86,5.14,-1.58,1.19,2.83,
0.758,-0.17,-1.86,5.14,-1.43,1.13,2.81,
0.759,-0.17,-1.86,5.14,-1.28,1.07,2.77,
0.763,-0.04,-1.90,4.96,-1.28,1.07,2.77,
0.765,-0.04,-1.90,4.96,-1.13,1.01,2.71,
0.765,-0.04,-1.90,4.96,-0.97,0.96,2.65,
0.767,0.14,-2.01,4.55,-0.97,0.96,2.65,
0.768,0.14,-2.01,4.55,-0.82,0.91,2.56,
0.769,0.14,-2.01,4.55,-0.66,0.87,2.47,
0.773,0.26,-2.00,4.30,-0.66,0.87,2.47,
0.774,0.26,-2.00,4.30,-0.51,0.83,2.38,
0.774,0.26,-2.00,4.30,-0.36,0.78,2.27,
0.779,0.41,-1.83,4.15,-0.36,0.78,2.27,
0.78,0.41,-1.83,4.15,-0.20,0.74,2.16,
0.78,0.41,-1.83,4.15,-0.05,0.69,2.04,
0.783,0.66,-1.64,4.08,-0.05,0.69,2.04,
0.784,0.66,-1.64,4.08,0.10,0.64,1.92,
0.784,0.66,-1.64,4.08,0.24,0.58,1.81,
0.787,1.06,-1.52,3.91,0.24,0.58,1.81,
0.787,1.06,-1.52,3.91,0.38,0.53,1.68,
0.789,1.06,-1.52,3.91,0.50,0.47,1.55,
0.792,1.48,-1.49,3.59,0.50,0.47,1.55,
0.792,1.48,-1.49,3.59,0.61,0.40,1.42,
0.795,1.48,-1.49,3.59,0.71,0.32,1.30,
0.798,1.60,-1.34,3.18,0.71,0.32,1.30,
0.799,1.60,-1.34,3.18,0.79,0.23,1.18,
0.8,1.60,-1.34,3.18,0.86,0.13,1.07,
0.802,1.44,-0.95,2.80,0.86,0.13,1.07,
0.803,1.44,-0.95,2.80,0.90,-0.00,0.97,
0.805,1.44,-0.95,2.80,0.91,-0.17,0.88,
0.807,1.29,-0.46,2.98,0.91,-0.17,0.88,
0.809,1.29,-0.46,2.98,0.91,-0.36,0.80,
0.821,1.29,-0.46,2.98,0.89,-0.56,0.74,
0.823,1.29,-0.46,2.98,0.84,-0.72,0.70,
0.823,0.95,-0.27,2.44,0.84,-0.72,0.70,
0.824,0.52,-0.12,1.15,0.84,-0.72,0.70,
0.824,0.52,-0.12,1.15,0.78,-0.79,0.67,
0.825,0.52,-0.12,1.15,0.72,-0.79,0.66,
0.826,0.52,-0.12,1.15,0.64,-0.77,0.65,
0.826,0.48,0.04,0.84,0.64,-0.77,0.65,
0.827,0.48,0.04,0.84,0.57,-0.81,0.65,
0.833,0.48,0.04,0.84,0.49,-0.90,0.64,
0.833,0.38,0.10,0.74,0.49,-0.90,0.64,
0.834,0.38,0.10,0.74,0.42,-1.01,0.64,
0.834,0.38,0.10,0.74,0.35,-1.10,0.64,
0.835,0.05,-0.03,-0.21,0.35,-1.10,0.64,
0.835,0.05,-0.03,-0.21,0.29,-1.15,0.65,
0.835,0.05,-0.03,-0.21,0.23,-1.14,0.65,
0.837,-0.31,-0.18,-1.27,0.23,-1.14,0.65,
0.838,-0.31,-0.18,-1.27,0.19,-1.10,0.65,
0.839,-0.31,-0.18,-1.27,0.16,-1.03,0.65,
0.843,-0.59,-0.04,-1.84,0.16,-1.03,0.65,
0.843,-0.59,-0.04,-1.84,0.14,-0.93,0.65,
0.848,-0.59,-0.04,-1.84,0.13,-0.81,0.65,
0.848,-0.88,0.31,-2.04,0.13,-0.81,0.65,
0.849,-0.88,0.31,-2.04,0.11,-0.70,0.66,
0.849,-0.88,0.31,-2.04,0.10,-0.57,0.67,
0.853,-1.23,0.64,-2.11,0.10,-0.57,0.67,
0.853,-1.23,0.64,-2.11,0.10,-0.46,0.70,
0.856,-1.23,0.64,-2.11,0.08,-0.36,0.73,
0.857,-1.53,0.86,-2.04,0.08,-0.36,0.73,
0.857,-1.53,0.86,-2.04,0.07,-0.28,0.78,
0.859,-1.53,0.86,-2.04,0.05,-0.21,0.83,
0.863,-1.56,0.96,-1.90,0.05,-0.21,0.83,
0.863,-1.56,0.96,-1.90,0.02,-0.17,0.89,
0.864,-1.56,0.96,-1.90,-0.02,-0.14,0.94,
0.867,-1.39,1.05,-1.95,-0.02,-0.14,0.94,
0.868,-1.39,1.05,-1.95,-0.05,-0.10,0.99,
0.869,-1.39,1.05,-1.95,-0.08,-0.04,1.04,
0.872,-1.32,1.33,-2.05,-0.08,-0.04,1.04,
0.873,-1.32,1.33,-2.05,-0.10,0.02,1.08,
0.875,-1.32,1.33,-2.05,-0.12,0.07,1.13,
0.878,-1.14,1.28,-2.06,-0.12,0.07,1.13,
0.879,-1.14,1.28,-2.06,-0.15,0.12,1.16,
0.879,-1.14,1.28,-2.06,-0.18,0.17,1.19,
0.883,-0.89,1.01,-2.20,-0.18,0.17,1.19,
0.883,-0.89,1.01,-2.20,-0.22,0.22,1.22,
0.885,-0.89,1.01,-2.20,-0.27,0.25,1.23,
0.887,-0.64,0.66,-2.34,-0.27,0.25,1.23,
0.888,-0.64,0.66,-2.34,-0.33,0.28,1.24,
0.891,-0.64,0.66,-2.34,-0.40,0.30,1.24,
0.892,-0.41,0.42,-2.40,-0.40,0.30,1.24,
0.892,-0.41,0.42,-2.40,-0.48,0.30,1.24,
0.895,-0.41,0.42,-2.40,-0.55,0.30,1.24,
0.898,-0.24,0.36,-2.39,-0.55,0.30,1.24,
0.898,-0.24,0.36,-2.39,-0.63,0.28,1.23,
0.9,-0.24,0.36,-2.39,-0.72,0.26,1.23,
0.906,-0.12,0.38,-2.32,-0.72,0.26,1.23,
0.907,-0.12,0.38,-2.32,-0.80,0.24,1.22,
0.907,-0.12,0.38,-2.32,-0.88,0.21,1.21,
0.908,-0.01,0.37,-2.24,-0.88,0.21,1.21,
0.908,-0.01,0.37,-2.24,-0.96,0.17,1.19,
0.91,-0.01,0.37,-2.24,-1.03,0.12,1.18,
0.913,0.24,0.28,-2.00,-1.03,0.12,1.18,
0.914,0.24,0.28,-2.00,-1.10,0.07,1.16,
0.915,0.24,0.28,-2.00,-1.17,-0.00,1.14,
0.918,0.72,0.06,-1.48,-1.17,-0.00,1.14,
0.919,0.72,0.06,-1.48,-1.24,-0.09,1.11,
0.92,0.72,0.06,-1.48,-1.30,-0.19,1.08,
0.923,1.46,-0.35,-0.79,-1.30,-0.19,1.08,
0.924,1.46,-0.35,-0.79,-1.35,-0.31,1.04,
0.925,1.46,-0.35,-0.79,-1.41,-0.44,0.99,
0.928,2.00,-0.66,-0.24,-1.41,-0.44,0.99,
0.928,2.00,-0.66,-0.24,-1.45,-0.57,0.93,
0.931,2.00,-0.66,-0.24,-1.48,-0.70,0.87,
0.932,2.18,-0.74,0.33,-1.48,-0.70,0.87,
0.933,2.18,-0.74,0.33,-1.50,-0.84,0.81,
0.935,2.18,-0.74,0.33,-1.50,-0.99,0.75,
0.938,2.28,-0.87,1.05,-1.50,-0.99,0.75,
0.938,2.28,-0.87,1.05,-1.51,-1.16,0.68,
0.941,2.28,-0.87,1.05,-1.50,-1.35,0.59,
0.943,2.46,-1.37,2.29,-1.50,-1.35,0.59,
0.943,2.46,-1.37,2.29,-1.49,-1.56,0.49,
0.946,2.46,-1.37,2.29,-1.46,-1.79,0.37,
0.95,2.65,-2.16,3.26,-1.46,-1.79,0.37,
0.95,2.65,-2.16,3.26,-1.42,-2.01,0.22,
0.951,2.65,-2.16,3.26,-1.36,-2.19,0.05,
0.953,2.66,-2.57,3.42,-1.36,-2.19,0.05,
0.954,2.66,-2.57,3.42,-1.29,-2.34,-0.11,
0.957,2.66,-2.57,3.42,-1.22,-2.47,-0.27,
0.959,2.33,-2.52,3.29,-1.22,-2.47,-0.27,
0.959,2.33,-2.52,3.29,-1.13,-2.57,-0.42,
0.96,2.33,-2.52,3.29,-1.03,-2.63,-0.55,
0.963,1.50,-1.91,2.76,-1.03,-2.63,-0.55,
0.965,1.50,-1.91,2.76,-0.94,-2.66,-0.66,
0.965,1.50,-1.91,2.76,-0.83,-2.66,-0.73,
0.968,0.50,-0.98,2.22,-0.83,-2.66,-0.73,
0.968,0.50,-0.98,2.22,-0.73,-2.63,-0.77,
0.97,0.50,-0.98,2.22,-0.63,-2.60,-0.79,
0.974,-0.40,-0.25,1.95,-0.63,-2.60,-0.79,
0.974,-0.40,-0.25,1.95,-0.53,-2.56,-0.77,
0.975,-0.40,-0.25,1.95,-0.43,-2.54,-0.75,
0.98,-0.95,0.01,1.83,-0.43,-2.54,-0.75,
0.981,-0.95,0.01,1.83,-0.33,-2.50,-0.71,
0.981,-0.95,0.01,1.83,-0.21,-2.46,-0.67,
0.983,-1.17,-0.05,1.90,-0.21,-2.46,-0.67,
0.983,-1.17,-0.05,1.90,-0.10,-2.45,-0.62,
0.985,-1.17,-0.05,1.90,0.00,-2.48,-0.57,
0.988,-1.46,0.06,2.29,0.00,-2.48,-0.57,
0.989,-1.46,0.06,2.29,0.10,-2.53,-0.52,
0.99,-1.46,0.06,2.29,0.18,-2.63,-0.45,
0.998,-1.73,0.26,2.35,0.18,-2.63,-0.45,
0.999,-1.73,0.26,2.35,0.26,-2.73,-0.38,
0.999,-1.73,0.26,2.35,0.33,-2.85,-0.31,
1.0,-1.98,0.45,2.05,0.33,-2.85,-0.31,
1.001,-1.98,0.45,2.05,0.38,-2.99,-0.25,
1.001,-1.98,0.45,2.05,0.43,-3.13,-0.18,
1.004,-2.18,0.49,1.53,0.43,-3.13,-0.18,
1.005,-2.18,0.49,1.53,0.46,-3.27,-0.11,
1.007,-2.18,0.49,1.53,0.49,-3.42,-0.05,
1.008,-2.39,0.40,0.92,0.49,-3.42,-0.05,
1.008,-2.39,0.40,0.92,0.50,-3.56,0.00,
1.009,-2.39,0.40,0.92,0.50,-3.71,0.06,
1.017,-2.60,0.26,0.21,0.50,-3.71,0.06,
1.019,-2.60,0.26,0.21,0.48,-3.85,0.10,
1.019,-2.60,0.26,0.21,0.46,-3.98,0.13,
1.019,-2.88,0.21,-0.65,0.46,-3.98,0.13,
1.02,-2.88,0.21,-0.65,0.42,-4.10,0.17,
1.021,-2.88,0.21,-0.65,0.37,-4.20,0.20,
1.023,-3.25,0.30,-1.49,0.37,-4.20,0.20,
1.026,-3.25,0.30,-1.49,0.30,-4.29,0.23,
1.026,-3.25,0.30,-1.49,0.23,-4.37,0.27,
1.029,-3.53,0.41,-2.24,0.23,-4.37,0.27,
1.03,-3.53,0.41,-2.24,0.14,-4.44,0.31,
1.03,-3.53,0.41,-2.24,0.05,-4.49,0.36,
1.033,-3.71,0.55,-2.96,0.05,-4.49,0.36,
1.034,-3.71,0.55,-2.96,-0.06,-4.54,0.42,
1.036,-3.71,0.55,-2.96,-0.17,-4.57,0.49,
1.037,-3.86,0.74,-3.36,-0.17,-4.57,0.49,
1.038,-3.86,0.74,-3.36,-0.28,-4.62,0.56,
1.042,-3.86,0.74,-3.36,-0.39,-4.66,0.64,
1.042,-3.94,0.86,-3.39,-0.39,-4.66,0.64,
1.042,-3.94,0.86,-3.39,-0.50,-4.72,0.72,
1.045,-3.94,0.86,-3.39,-0.60,-4.78,0.79,
1.048,-3.87,0.75,-3.13,-0.60,-4.78,0.79,
1.049,-3.87,0.75,-3.13,-0.69,-4.85,0.86,
1.05,-3.87,0.75,-3.13,-0.78,-4.93,0.92,
1.053,-3.53,0.42,-2.92,-0.78,-4.93,0.92,
1.054,-3.53,0.42,-2.92,-0.86,-5.00,0.97,
1.056,-3.53,0.42,-2.92,-0.93,-5.06,1.00,
1.058,-3.02,0.01,-2.82,-0.93,-5.06,1.00,
1.059,-3.02,0.01,-2.82,-1.00,-5.11,1.03,
1.059,-3.02,0.01,-2.82,-1.06,-5.15,1.05,
1.063,-2.49,-0.34,-2.73,-1.06,-5.15,1.05,
1.065,-2.49,-0.34,-2.73,-1.12,-5.17,1.06,
1.066,-2.49,-0.34,-2.73,-1.16,-5.18,1.06,
1.068,-2.00,-0.48,-2.66,-1.16,-5.18,1.06,
1.069,-2.00,-0.48,-2.66,-1.20,-5.17,1.06,
1.071,-2.00,-0.48,-2.66,-1.24,-5.15,1.06,
1.073,-1.67,-0.32,-2.56,-1.24,-5.15,1.06,
1.074,-1.67,-0.32,-2.56,-1.27,-5.11,1.06,
1.075,-1.67,-0.32,-2.56,-1.29,-5.07,1.06,
1.078,-1.23,-0.13,-2.51,-1.29,-5.07,1.06,
1.079,-1.23,-0.13,-2.51,-1.32,-5.01,1.06,
1.08,-1.23,-0.13,-2.51,-1.35,-4.94,1.06,
1.082,-0.74,0.04,-2.40,-1.35,-4.94,1.06,
1.083,-0.74,0.04,-2.40,-1.37,-4.86,1.06,
1.085,-0.74,0.04,-2.40,-1.41,-4.80,1.07,
1.088,-0.37,0.35,-2.14,-1.41,-4.80,1.07,
1.088,-0.37,0.35,-2.14,-1.45,-4.74,1.08,
1.089,-0.37,0.35,-2.14,-1.48,-4.68,1.09,
1.093,0.02,0.57,-1.91,-1.48,-4.68,1.09,
1.093,0.02,0.57,-1.91,-1.51,-4.62,1.10,
1.096,0.02,0.57,-1.91,-1.54,-4.55,1.10,
1.098,0.63,0.42,-1.97,-1.54,-4.55,1.10,
1.099,0.63,0.42,-1.97,-1.57,-4.48,1.10,
1.1,0.63,0.42,-1.97,-1.59,-4.39,1.09,
1.103,1.17,0.17,-2.25,-1.59,-4.39,1.09,
1.104,1.17,0.17,-2.25,-1.61,-4.29,1.08,
1.105,1.17,0.17,-2.25,-1.62,-4.18,1.06,
1.108,1.49,0.01,-2.55,-1.62,-4.18,1.06,
1.109,1.49,0.01,-2.55,-1.62,-4.06,1.04,
1.115,1.49,0.01,-2.55,-1.62,-3.94,1.01,
1.116,1.68,0.02,-2.45,-1.62,-3.94,1.01,
1.117,1.68,0.02,-2.45,-1.61,-3.82,0.98,
1.117,1.68,0.02,-2.45,-1.59,-3.72,0.95,
1.119,1.81,0.17,-1.96,-1.59,-3.72,0.95,
1.12,1.81,0.17,-1.96,-1.57,-3.64,0.91,
1.121,1.81,0.17,-1.96,-1.54,-3.57,0.88,
1.124,1.83,0.39,-1.36,-1.54,-3.57,0.88,
1.124,1.83,0.39,-1.36,-1.51,-3.53,0.83,
1.125,1.83,0.39,-1.36,-1.48,-3.49,0.79,
1.128,1.71,0.60,-0.85,-1.48,-3.49,0.79,
1.129,1.71,0.60,-0.85,-1.45,-3.48,0.75,
1.13,1.71,0.60,-0.85,-1.41,-3.47,0.71,
1.133,1.45,0.80,-0.54,-1.41,-3.47,0.71,
1.134,1.45,0.80,-0.54,-1.37,-3.48,0.68,
1.135,1.45,0.80,-0.54,-1.33,-3.49,0.64,
1.139,1.06,0.96,-0.34,-1.33,-3.49,0.64,
1.14,1.06,0.96,-0.34,-1.29,-3.51,0.60,
1.14,1.06,0.96,-0.34,-1.25,-3.54,0.57,
1.145,0.62,0.99,-0.13,-1.25,-3.54,0.57,
1.146,0.62,0.99,-0.13,-1.21,-3.58,0.54,
1.146,0.62,0.99,-0.13,-1.17,-3.63,0.50,
1.149,0.62,0.99,-0.13,-1.13,-3.67,0.47,
1.15,0.19,0.86,-0.01,-1.13,-3.67,0.47,
1.151,0.19,0.86,-0.01,-1.09,-3.71,0.43,
1.154,-0.19,0.63,-0.01,-1.09,-3.71,0.43,
1.155,-0.19,0.63,-0.01,-1.05,-3.75,0.40,
1.155,-0.19,0.63,-0.01,-1.01,-3.78,0.37,
1.158,-0.56,0.37,-0.10,-1.01,-3.78,0.37,
1.167,-0.56,0.37,-0.10,-0.96,-3.78,0.34,
1.168,-0.56,0.37,-0.10,-0.92,-3.78,0.32,
1.169,-0.94,0.18,-0.19,-0.92,-3.78,0.32,
1.17,-0.94,0.18,-0.19,-0.87,-3.77,0.30,
1.17,-0.94,0.18,-0.19,-0.83,-3.76,0.30,
1.171,-1.36,0.05,-0.27,-0.83,-3.76,0.30,
1.172,-1.36,0.05,-0.27,-0.80,-3.74,0.30,
1.172,-1.36,0.05,-0.27,-0.77,-3.71,0.32,
1.173,-1.71,-0.07,-0.28,-0.77,-3.71,0.32,
1.174,-1.71,-0.07,-0.28,-0.75,-3.69,0.35,
1.181,-1.71,-0.07,-0.28,-0.74,-3.67,0.38,
1.182,-1.77,-0.23,-0.16,-0.74,-3.67,0.38,
1.182,-1.77,-0.23,-0.16,-0.74,-3.66,0.42,
1.183,-1.77,-0.23,-0.16,-0.74,-3.64,0.47,
1.183,-1.69,-0.35,0.02,-0.74,-3.64,0.47,
1.184,-1.69,-0.35,0.02,-0.75,-3.63,0.52,
1.185,-1.69,-0.35,0.02,-0.77,-3.61,0.57,
1.189,-1.66,-0.45,0.29,-0.77,-3.61,0.57,
1.19,-1.66,-0.45,0.29,-0.79,-3.60,0.62,
1.19,-1.66,-0.45,0.29,-0.81,-3.59,0.67,
1.194,-1.65,-0.54,0.62,-0.81,-3.59,0.67,
1.194,-1.65,-0.54,0.62,-0.84,-3.59,0.72,
1.197,-1.65,-0.54,0.62,-0.86,-3.59,0.77,
1.199,-1.58,-0.61,0.93,-0.86,-3.59,0.77,
1.2,-1.58,-0.61,0.93,-0.88,-3.59,0.82,
1.201,-1.58,-0.61,0.93,-0.91,-3.60,0.86,
1.203,-1.45,-0.64,1.19,-0.91,-3.60,0.86,
1.204,-1.45,-0.64,1.19,-0.93,-3.61,0.90,
1.205,-1.45,-0.64,1.19,-0.95,-3.62,0.94,
1.208,-1.25,-0.67,1.42,-0.95,-3.62,0.94,
1.21,-1.25,-0.67,1.42,-0.96,-3.63,0.96,
1.216,-1.25,-0.67,1.42,-0.98,-3.65,0.99,
1.217,-0.98,-0.75,1.67,-0.98,-3.65,0.99,
1.217,-0.98,-0.75,1.67,-0.99,-3.67,1.01,
1.218,-0.98,-0.75,1.67,-0.99,-3.69,1.03,
1.218,-0.72,-0.81,1.94,-0.99,-3.69,1.03,
1.219,-0.72,-0.81,1.94,-0.99,-3.72,1.04,
1.221,-0.72,-0.81,1.94,-0.98,-3.75,1.04,
1.225,-0.41,-0.81,2.15,-0.98,-3.75,1.04,
1.226,-0.41,-0.81,2.15,-0.97,-3.78,1.04,
1.226,-0.41,-0.81,2.15,-0.96,-3.80,1.04,
1.229,-0.41,-0.81,2.15,-0.94,-3.81,1.03,
1.23,-0.07,-0.77,2.25,-0.94,-3.81,1.03,
1.231,-0.07,-0.77,2.25,-0.91,-3.82,1.02,
1.234,0.28,-0.73,2.36,-0.91,-3.82,1.02,
1.234,0.28,-0.73,2.36,-0.88,-3.82,1.00,
1.236,0.28,-0.73,2.36,-0.84,-3.82,0.99,
1.238,0.89,-0.68,2.66,-0.84,-3.82,0.99,
1.238,0.89,-0.68,2.66,-0.80,-3.83,0.97,
1.242,0.89,-0.68,2.66,-0.75,-3.83,0.94,
1.244,1.06,-0.75,2.90,-0.75,-3.83,0.94,
1.245,1.06,-0.75,2.90,-0.70,-3.84,0.92,
1.249,1.06,-0.75,2.90,-0.65,-3.86,0.90,
1.25,1.06,-0.75,2.90,-0.59,-3.88,0.89,
1.25,0.71,-0.72,3.15,-0.59,-3.88,0.89,
1.251,0.71,-0.72,3.15,-0.54,-3.91,0.88,
1.254,0.71,-0.72,3.15,-0.48,-3.94,0.87,
1.255,0.13,-0.62,3.22,-0.48,-3.94,0.87,
1.257,0.13,-0.62,3.22,-0.42,-3.95,0.87,
1.258,-0.45,-0.70,3.09,-0.42,-3.95,0.87,
1.258,-0.45,-0.70,3.09,-0.36,-3.95,0.87,
1.261,-0.45,-0.70,3.09,-0.29,-3.93,0.87,
1.264,-0.94,-0.92,2.87,-0.29,-3.93,0.87,
1.265,-0.94,-0.92,2.87,-0.21,-3.91,0.87,
1.266,-0.94,-0.92,2.87,-0.13,-3.88,0.87,
1.27,-1.32,-1.08,2.69,-0.13,-3.88,0.87,
1.271,-1.32,-1.08,2.69,-0.04,-3.84,0.89,
1.271,-1.32,-1.08,2.69,0.04,-3.80,0.91,
1.274,-1.64,-1.05,2.55,0.04,-3.80,0.91,
1.275,-1.64,-1.05,2.55,0.13,-3.76,0.94,
1.276,-1.64,-1.05,2.55,0.21,-3.72,0.97,
1.279,-1.76,-0.92,2.43,0.21,-3.72,0.97,
1.28,-1.76,-0.92,2.43,0.30,-3.69,1.01,
1.282,-1.76,-0.92,2.43,0.37,-3.67,1.05,
1.284,-1.69,-0.80,2.41,0.37,-3.67,1.05,
1.285,-1.69,-0.80,2.41,0.44,-3.66,1.10,
1.285,-1.69,-0.80,2.41,0.51,-3.66,1.15,
1.29,-1.52,-0.66,2.40,0.51,-3.66,1.15,
1.291,-1.52,-0.66,2.40,0.57,-3.67,1.20,
1.291,-1.52,-0.66,2.40,0.63,-3.68,1.25,
1.294,-1.23,-0.56,2.24,0.63,-3.68,1.25,
1.295,-1.23,-0.56,2.24,0.69,-3.70,1.30,
1.299,-1.23,-0.56,2.24,0.73,-3.72,1.34,
1.3,-0.82,-0.50,1.93,0.73,-3.72,1.34,
1.3,-0.82,-0.50,1.93,0.78,-3.73,1.37,
1.301,-0.82,-0.50,1.93,0.82,-3.74,1.40,
1.305,-0.24,-0.44,1.47,0.82,-3.74,1.40,
1.305,-0.24,-0.44,1.47,0.85,-3.75,1.42,
1.306,-0.24,-0.44,1.47,0.88,-3.74,1.43,
1.309,0.43,-0.37,0.86,0.88,-3.74,1.43,
1.309,0.43,-0.37,0.86,0.90,-3.73,1.43,
1.317,0.43,-0.37,0.86,0.93,-3.71,1.41,
1.318,1.01,-0.36,0.36,0.93,-3.71,1.41,
1.319,1.01,-0.36,0.36,0.94,-3.69,1.40,
1.321,1.01,-0.36,0.36,0.96,-3.67,1.37,
1.321,1.59,-0.36,0.01,0.96,-3.67,1.37,
1.322,1.59,-0.36,0.01,0.97,-3.65,1.34,
1.322,1.59,-0.36,0.01,0.98,-3.63,1.30,
1.324,1.98,-0.37,-0.23,0.98,-3.63,1.30,
1.324,1.98,-0.37,-0.23,0.99,-3.62,1.26,
1.331,1.98,-0.37,-0.23,1.00,-3.60,1.22,
1.331,2.25,-0.47,-0.46,1.00,-3.60,1.22,
1.332,2.25,-0.47,-0.46,1.01,-3.58,1.17,
1.332,2.25,-0.47,-0.46,1.02,-3.56,1.13,
1.335,2.51,-0.54,-0.80,1.02,-3.56,1.13,
1.337,2.51,-0.54,-0.80,1.03,-3.52,1.08,
1.337,2.51,-0.54,-0.80,1.04,-3.48,1.04,
1.338,2.71,-0.51,-1.20,1.04,-3.48,1.04,
1.339,2.71,-0.51,-1.20,1.06,-3.43,1.00,
1.341,2.71,-0.51,-1.20,1.08,-3.36,0.96,
1.346,2.62,-0.45,-1.42,1.08,-3.36,0.96,
1.347,2.62,-0.45,-1.42,1.10,-3.30,0.94,
1.348,2.62,-0.45,-1.42,1.12,-3.25,0.92,
1.349,2.22,-0.34,-1.39,1.12,-3.25,0.92,
1.349,2.22,-0.34,-1.39,1.15,-3.19,0.90,
1.351,2.22,-0.34,-1.39,1.17,-3.15,0.89,
1.355,1.64,-0.13,-1.23,1.17,-3.15,0.89,
1.356,1.64,-0.13,-1.23,1.19,-3.11,0.89,
1.356,1.64,-0.13,-1.23,1.22,-3.07,0.89,
1.36,1.06,0.05,-1.17,1.22,-3.07,0.89,
1.361,1.06,0.05,-1.17,1.24,-3.03,0.90,
1.361,1.06,0.05,-1.17,1.25,-2.98,0.90,
1.366,0.61,0.04,-1.29,1.25,-2.98,0.90,
1.367,0.61,0.04,-1.29,1.27,-2.92,0.91,
1.367,0.61,0.04,-1.29,1.28,-2.84,0.92,
1.371,0.31,-0.08,-1.61,1.28,-2.84,0.92,
1.372,0.31,-0.08,-1.61,1.29,-2.75,0.94,
1.373,0.31,-0.08,-1.61,1.30,-2.64,0.96,
1.375,0.10,-0.17,-1.94,1.30,-2.64,0.96,
1.375,0.10,-0.17,-1.94,1.30,-2.51,0.98,
1.376,0.10,-0.17,-1.94,1.31,-2.37,1.01,
1.378,-0.09,-0.20,-2.18,1.31,-2.37,1.01,
1.379,-0.09,-0.20,-2.18,1.30,-2.23,1.05,
1.382,-0.09,-0.20,-2.18,1.29,-2.09,1.10,
1.384,-0.25,-0.20,-2.17,1.29,-2.09,1.10,
1.384,-0.25,-0.20,-2.17,1.27,-1.94,1.14,
1.385,-0.25,-0.20,-2.17,1.25,-1.81,1.20,
1.39,-0.30,-0.20,-1.97,1.25,-1.81,1.20,
1.39,-0.30,-0.20,-1.97,1.23,-1.68,1.25,
1.391,-0.30,-0.20,-1.97,1.21,-1.55,1.31,
1.394,-0.19,-0.18,-1.79,1.21,-1.55,1.31,
1.394,-0.19,-0.18,-1.79,1.18,-1.41,1.37,
1.397,-0.19,-0.18,-1.79,1.16,-1.28,1.43,
1.399,0.01,-0.09,-1.71,1.16,-1.28,1.43,
1.399,0.01,-0.09,-1.71,1.14,-1.15,1.49,
1.401,0.01,-0.09,-1.71,1.12,-1.01,1.53,
1.404,0.22,0.04,-1.65,1.12,-1.01,1.53,
1.405,0.22,0.04,-1.65,1.11,-0.87,1.58,
1.406,0.22,0.04,-1.65,1.10,-0.73,1.63,
1.41,0.36,0.17,-1.63,1.10,-0.73,1.63,
1.41,0.36,0.17,-1.63,1.10,-0.59,1.67,
1.411,0.36,0.17,-1.63,1.10,-0.44,1.71,
1.417,0.45,0.31,-1.58,1.10,-0.44,1.71,
1.418,0.45,0.31,-1.58,1.11,-0.29,1.74,
1.419,0.45,0.31,-1.58,1.13,-0.14,1.78,
1.419,0.46,0.49,-1.48,1.13,-0.14,1.78,
1.42,0.46,0.49,-1.48,1.15,0.01,1.81,
1.422,0.46,0.49,-1.48,1.18,0.15,1.84,
1.424,0.44,0.66,-1.36,1.18,0.15,1.84,
1.425,0.44,0.66,-1.36,1.19,0.28,1.87,
1.426,0.44,0.66,-1.36,1.21,0.40,1.89,
1.429,0.41,0.79,-1.25,1.21,0.40,1.89,
1.43,0.41,0.79,-1.25,1.22,0.51,1.91,
1.431,0.41,0.79,-1.25,1.23,0.61,1.94,
1.433,0.45,0.81,-1.24,1.23,0.61,1.94,
1.434,0.45,0.81,-1.24,1.23,0.70,1.96,
1.438,0.45,0.81,-1.24,1.23,0.78,1.98,
1.439,0.57,0.73,-1.26,1.23,0.78,1.98,
1.44,0.57,0.73,-1.26,1.22,0.86,2.00,
1.442,0.57,0.73,-1.26,1.21,0.92,2.01,
1.445,0.83,0.58,-1.34,1.21,0.92,2.01,
1.445,0.83,0.58,-1.34,1.19,0.97,2.01,
1.45,0.83,0.58,-1.34,1.17,1.01,2.00,
1.45,1.14,0.43,-1.48,1.17,1.01,2.00,
1.451,1.14,0.43,-1.48,1.13,1.04,1.99,
1.452,1.14,0.43,-1.48,1.08,1.06,1.97,
1.455,1.42,0.23,-1.51,1.08,1.06,1.97,
1.455,1.42,0.23,-1.51,1.02,1.05,1.94,
1.458,1.42,0.23,-1.51,0.96,1.03,1.91,
1.459,1.68,-0.00,-1.45,0.96,1.03,1.91,
1.46,1.68,-0.00,-1.45,0.90,1.01,1.87,
1.463,1.68,-0.00,-1.45,0.83,0.97,1.83,
1.465,1.94,-0.25,-1.39,0.83,0.97,1.83,
1.465,1.94,-0.25,-1.39,0.76,0.92,1.78,
1.468,1.94,-0.25,-1.39,0.69,0.88,1.71,
1.469,2.18,-0.50,-1.40,0.69,0.88,1.71,
1.469,2.18,-0.50,-1.40,0.62,0.83,1.65,
1.473,2.18,-0.50,-1.40,0.55,0.79,1.57,
1.476,2.38,-0.66,-1.40,0.55,0.79,1.57,
1.477,2.38,-0.66,-1.40,0.49,0.74,1.49,
1.477,2.38,-0.66,-1.40,0.42,0.69,1.41,
1.482,2.57,-0.76,-1.34,0.42,0.69,1.41,
1.483,2.57,-0.76,-1.34,0.36,0.64,1.33,
1.483,2.57,-0.76,-1.34,0.29,0.59,1.25,
1.484,2.66,-0.75,-1.17,0.29,0.59,1.25,
1.485,2.66,-0.75,-1.17,0.23,0.53,1.17,
1.487,2.66,-0.75,-1.17,0.18,0.47,1.10,
1.49,2.64,-0.67,-0.78,0.18,0.47,1.10,
1.491,2.64,-0.67,-0.78,0.13,0.40,1.04,
1.491,2.64,-0.67,-0.78,0.09,0.31,0.97,
1.496,2.53,-0.55,-0.22,0.09,0.31,0.97,
1.497,2.53,-0.55,-0.22,0.05,0.22,0.91,
1.498,2.53,-0.55,-0.22,0.02,0.12,0.85,
1.5,2.37,-0.44,0.29,0.02,0.12,0.85,
1.5,2.37,-0.44,0.29,-0.01,0.02,0.79,
1.501,2.37,-0.44,0.29,-0.03,-0.09,0.74,
1.504,2.27,-0.34,0.65,-0.03,-0.09,0.74,
1.505,2.27,-0.34,0.65,-0.04,-0.19,0.68,
1.506,2.27,-0.34,0.65,-0.05,-0.29,0.63,
1.509,2.23,-0.32,0.81,-0.05,-0.29,0.63,
1.51,2.23,-0.32,0.81,-0.05,-0.38,0.59,
1.521,2.23,-0.32,0.81,-0.03,-0.46,0.54,
1.522,2.20,-0.28,0.72,-0.03,-0.46,0.54,
1.523,2.20,-0.28,0.72,-0.02,-0.52,0.50,
1.524,2.20,-0.28,0.72,0.00,-0.57,0.45,
1.524,2.20,-0.23,0.54,0.00,-0.57,0.45,
1.525,2.20,-0.23,0.54,0.03,-0.60,0.41,
1.525,2.20,-0.23,0.54,0.06,-0.63,0.38,
1.526,2.18,-0.15,0.45,0.06,-0.63,0.38,
1.526,2.18,-0.15,0.45,0.08,-0.65,0.34,
1.526,2.18,-0.15,0.45,0.11,-0.68,0.31,
1.529,2.18,-0.05,0.47,0.11,-0.68,0.31,
1.53,2.18,-0.05,0.47,0.14,-0.71,0.28,
1.532,2.18,-0.05,0.47,0.16,-0.74,0.25,
1.534,2.14,0.04,0.42,0.16,-0.74,0.25,
1.535,2.14,0.04,0.42,0.19,-0.77,0.23,
1.536,2.14,0.04,0.42,0.21,-0.79,0.21,
1.539,2.03,0.07,0.26,0.21,-0.79,0.21,
1.539,2.03,0.07,0.26,0.23,-0.81,0.20,
1.542,2.03,0.07,0.26,0.25,-0.83,0.19,
1.544,1.79,0.09,-0.00,0.25,-0.83,0.19,
1.545,1.79,0.09,-0.00,0.27,-0.84,0.18,
1.547,1.79,0.09,-0.00,0.28,-0.84,0.18,
1.549,1.59,0.19,-0.37,0.28,-0.84,0.18,
1.549,1.59,0.19,-0.37,0.29,-0.84,0.19,
1.551,1.59,0.19,-0.37,0.30,-0.84,0.19,
1.555,1.46,0.28,-0.78,0.30,-0.84,0.19,
1.556,1.46,0.28,-0.78,0.30,-0.83,0.20,
1.556,1.46,0.28,-0.78,0.30,-0.83,0.21,
1.56,1.41,0.31,-1.08,0.30,-0.83,0.21,
1.56,1.41,0.31,-1.08,0.30,-0.82,0.21,
1.563,1.41,0.31,-1.08,0.29,-0.80,0.22,
1.564,1.52,0.22,-1.40,0.29,-0.80,0.22,
1.565,1.52,0.22,-1.40,0.28,-0.78,0.23,
1.567,1.52,0.22,-1.40,0.27,-0.75,0.23,
1.569,1.81,0.07,-1.72,0.27,-0.75,0.23,
1.569,1.81,0.07,-1.72,0.25,-0.72,0.23,
1.572,1.81,0.07,-1.72,0.23,-0.68,0.23,
1.575,2.21,-0.14,-1.91,0.23,-0.68,0.23,
1.576,2.21,-0.14,-1.91,0.21,-0.64,0.22,
1.576,2.21,-0.14,-1.91,0.19,-0.60,0.21,
1.579,2.76,-0.37,-1.79,0.19,-0.60,0.21,
1.58,2.76,-0.37,-1.79,0.18,-0.56,0.19,
1.582,2.76,-0.37,-1.79,0.17,-0.52,0.18,
1.584,3.47,-0.60,-1.41,0.17,-0.52,0.18,
1.585,3.47,-0.60,-1.41,0.16,-0.50,0.16,
1.588,3.47,-0.60,-1.41,0.16,-0.48,0.13,
1.589,3.80,-0.72,-0.98,0.16,-0.48,0.13,
1.59,3.80,-0.72,-0.98,0.16,-0.47,0.11,
1.591,3.80,-0.72,-0.98,0.17,-0.48,0.08,
1.596,3.75,-0.70,-0.60,0.17,-0.48,0.08,
1.597,3.75,-0.70,-0.60,0.17,-0.49,0.05,
1.598,3.75,-0.70,-0.60,0.18,-0.52,0.02,
1.6,3.53,-0.62,-0.39,0.18,-0.52,0.02,
1.601,3.53,-0.62,-0.39,0.18,-0.56,-0.02,
1.601,3.53,-0.62,-0.39,0.19,-0.60,-0.05,
1.604,3.19,-0.52,-0.32,0.19,-0.60,-0.05,
1.605,3.19,-0.52,-0.32,0.19,-0.65,-0.09,
1.608,3.19,-0.52,-0.32,0.19,-0.70,-0.13,
1.609,2.76,-0.46,-0.34,0.19,-0.70,-0.13,
1.61,2.76,-0.46,-0.34,0.18,-0.75,-0.16,
1.617,2.76,-0.46,-0.34,0.17,-0.81,-0.19,
1.618,2.30,-0.50,-0.39,0.17,-0.81,-0.19,
1.619,2.30,-0.50,-0.39,0.16,-0.87,-0.22,
1.619,2.30,-0.50,-0.39,0.15,-0.93,-0.25,
1.62,1.81,-0.57,-0.42,0.15,-0.93,-0.25,
1.621,1.81,-0.57,-0.42,0.14,-0.99,-0.28,
1.623,1.81,-0.57,-0.42,0.14,-1.04,-0.30,
1.626,1.39,-0.57,-0.47,0.14,-1.04,-0.30,
1.627,1.39,-0.57,-0.47,0.13,-1.09,-0.33,
1.628,1.39,-0.57,-0.47,0.13,-1.14,-0.36,
1.631,1.04,-0.57,-0.50,0.13,-1.14,-0.36,
1.632,1.04,-0.57,-0.50,0.12,-1.17,-0.38,
1.632,1.04,-0.57,-0.50,0.12,-1.21,-0.40,
1.635,0.80,-0.56,-0.43,0.12,-1.21,-0.40,
1.635,0.80,-0.56,-0.43,0.12,-1.24,-0.42,
1.637,0.80,-0.56,-0.43,0.11,-1.27,-0.43,
1.64,0.62,-0.53,-0.33,0.11,-1.27,-0.43,
1.64,0.62,-0.53,-0.33,0.11,-1.30,-0.45,
1.642,0.62,-0.53,-0.33,0.10,-1.33,-0.45,
1.646,0.47,-0.56,-0.18,0.10,-1.33,-0.45,
1.646,0.47,-0.56,-0.18,0.10,-1.36,-0.45,
1.647,0.47,-0.56,-0.18,0.09,-1.39,-0.45,
1.651,0.39,-0.58,-0.07,0.09,-1.39,-0.45,
1.651,0.39,-0.58,-0.07,0.09,-1.41,-0.45,
1.652,0.39,-0.58,-0.07,0.09,-1.43,-0.45,
1.655,0.39,-0.65,0.00,0.09,-1.43,-0.45,
1.656,0.39,-0.65,0.00,0.09,-1.44,-0.45,
1.659,0.38,-0.72,0.03,0.09,-1.44,-0.45,
1.667,0.38,-0.72,0.03,0.09,-1.45,-0.45,
1.672,0.38,-0.72,0.03,0.09,-1.45,-0.46,
1.672,0.38,-0.72,0.03,0.10,-1.44,-0.47,
1.673,0.38,-0.72,0.03,0.10,-1.42,-0.47,
1.673,0.33,-0.75,0.05,0.10,-1.42,-0.47,
1.674,0.33,-0.75,0.05,0.11,-1.40,-0.48,
1.674,0.25,-0.76,0.14,0.11,-1.40,-0.48,
1.674,0.25,-0.76,0.14,0.12,-1.37,-0.48,
1.675,0.25,-0.76,0.14,0.13,-1.35,-0.49,
1.675,0.18,-0.69,0.36,0.13,-1.35,-0.49,
1.676,0.18,-0.69,0.36,0.14,-1.33,-0.49,
1.678,0.18,-0.69,0.36,0.15,-1.31,-0.50,
1.68,0.13,-0.59,0.69,0.15,-1.31,-0.50,
1.681,0.13,-0.59,0.69,0.16,-1.29,-0.50,
1.684,0.13,-0.59,0.69,0.18,-1.29,-0.51,
1.685,-0.05,-0.44,1.06,0.18,-1.29,-0.51,
1.686,-0.05,-0.44,1.06,0.20,-1.28,-0.52,
1.688,-0.05,-0.44,1.06,0.23,-1.28,-0.52,
1.689,-0.35,-0.28,1.26,0.23,-1.28,-0.52,
1.69,-0.35,-0.28,1.26,0.26,-1.28,-0.53,
1.692,-0.35,-0.28,1.26,0.29,-1.27,-0.52,
1.695,-0.68,-0.11,1.24,0.29,-1.27,-0.52,
1.696,-0.68,-0.11,1.24,0.32,-1.25,-0.52,
1.697,-0.68,-0.11,1.24,0.36,-1.23,-0.51,
1.699,-1.01,0.03,1.02,0.36,-1.23,-0.51,
1.7,-1.01,0.03,1.02,0.40,-1.19,-0.50,
1.702,-1.01,0.03,1.02,0.43,-1.14,-0.48,
1.705,-1.28,0.10,0.80,0.43,-1.14,-0.48,
1.705,-1.28,0.10,0.80,0.47,-1.09,-0.46,
1.707,-1.28,0.10,0.80,0.50,-1.04,-0.44,
1.709,-1.51,0.19,0.69,0.50,-1.04,-0.44,
1.71,-1.51,0.19,0.69,0.52,-0.99,-0.41,
1.719,-1.51,0.19,0.69,0.55,-0.94,-0.37,
1.72,-1.63,0.32,0.66,0.55,-0.94,-0.37,
1.721,-1.63,0.32,0.66,0.56,-0.90,-0.34,
1.721,-1.63,0.32,0.66,0.57,-0.86,-0.30,
1.722,-1.67,0.44,0.63,0.57,-0.86,-0.30,
1.722,-1.67,0.44,0.63,0.58,-0.83,-0.26,
1.724,-1.67,0.44,0.63,0.58,-0.81,-0.22,
1.726,-1.65,0.48,0.64,0.58,-0.81,-0.22,
1.726,-1.65,0.48,0.64,0.57,-0.79,-0.19,
1.726,-1.65,0.48,0.64,0.56,-0.77,-0.15,
1.731,-1.55,0.40,0.71,0.56,-0.77,-0.15,
1.731,-1.55,0.40,0.71,0.55,-0.76,-0.12,
1.732,-1.55,0.40,0.71,0.54,-0.75,-0.09,
1.734,-1.36,0.28,0.85,0.54,-0.75,-0.09,
1.735,-1.36,0.28,0.85,0.52,-0.75,-0.06,
1.737,-1.36,0.28,0.85,0.51,-0.76,-0.05,
1.74,-1.06,0.17,1.07,0.51,-0.76,-0.05,
1.74,-1.06,0.17,1.07,0.50,-0.78,-0.03,
1.742,-1.06,0.17,1.07,0.50,-0.80,-0.03,
1.745,-0.66,0.08,1.16,0.50,-0.80,-0.03,
1.747,-0.66,0.08,1.16,0.49,-0.82,-0.04,
1.748,-0.66,0.08,1.16,0.48,-0.84,-0.05,
1.75,-0.30,0.00,1.19,0.48,-0.84,-0.05,
1.75,-0.30,0.00,1.19,0.48,-0.86,-0.06,
1.752,-0.30,0.00,1.19,0.48,-0.88,-0.08,
1.755,-0.03,-0.06,1.20,0.48,-0.88,-0.08,
1.755,-0.03,-0.06,1.20,0.48,-0.89,-0.10,
1.758,-0.03,-0.06,1.20,0.48,-0.90,-0.13,
1.759,0.25,-0.05,1.27,0.48,-0.90,-0.13,
1.76,0.25,-0.05,1.27,0.48,-0.92,-0.15,
1.763,0.25,-0.05,1.27,0.49,-0.94,-0.18,
1.765,0.55,0.07,1.47,0.49,-0.94,-0.18,
1.766,0.55,0.07,1.47,0.49,-0.97,-0.21,
1.767,0.55,0.07,1.47,0.50,-1.00,-0.24,
1.77,0.79,0.25,1.65,0.50,-1.00,-0.24,
1.77,0.79,0.25,1.65,0.51,-1.03,-0.28,
1.772,0.79,0.25,1.65,0.52,-1.07,-0.32,
1.775,0.94,0.45,1.66,0.52,-1.07,-0.32,
1.776,0.94,0.45,1.66,0.53,-1.10,-0.36,
1.781,0.94,0.45,1.66,0.55,-1.12,-0.40,
1.782,1.02,0.60,1.46,0.55,-1.12,-0.40,
1.782,1.02,0.60,1.46,0.57,-1.15,-0.45,
1.782,1.02,0.60,1.46,0.58,-1.16,-0.50,
1.785,1.04,0.57,1.19,0.58,-1.16,-0.50,
1.786,1.04,0.57,1.19,0.60,-1.16,-0.55,
1.788,1.04,0.57,1.19,0.62,-1.16,-0.60,
1.791,1.07,0.50,0.99,0.62,-1.16,-0.60,
1.791,1.07,0.50,0.99,0.63,-1.16,-0.66,
1.792,1.07,0.50,0.99,0.65,-1.15,-0.71,
1.797,1.06,0.52,0.97,0.65,-1.15,-0.71,
1.798,1.06,0.52,0.97,0.67,-1.15,-0.76,
1.799,1.06,0.52,0.97,0.68,-1.16,-0.80,
1.8,0.88,0.57,1.18,0.68,-1.16,-0.80,
1.801,0.88,0.57,1.18,0.70,-1.18,-0.84,
1.803,0.88,0.57,1.18,0.72,-1.20,-0.86,
1.806,0.41,0.55,1.23,0.72,-1.20,-0.86,
1.806,0.41,0.55,1.23,0.74,-1.23,-0.88,
1.808,0.41,0.55,1.23,0.75,-1.25,-0.90,
1.81,-0.14,0.54,0.87,0.75,-1.25,-0.90,
1.811,-0.14,0.54,0.87,0.76,-1.25,-0.90,
1.814,-0.14,0.54,0.87,0.77,-1.25,-0.91,
1.816,-0.65,0.64,0.27,0.77,-1.25,-0.91,
1.817,-0.65,0.64,0.27,0.77,-1.24,-0.90,
1.817,-0.65,0.64,0.27,0.77,-1.21,-0.89,
1.82,-1.10,0.78,-0.29,0.77,-1.21,-0.89,
1.82,-1.10,0.78,-0.29,0.76,-1.18,-0.88,
1.822,-1.10,0.78,-0.29,0.75,-1.14,-0.86,
1.826,-1.48,0.93,-0.66,0.75,-1.14,-0.86,
1.827,-1.48,0.93,-0.66,0.74,-1.10,-0.84,
1.833,-1.48,0.93,-0.66,0.72,-1.05,-0.81,
1.834,-1.83,1.07,-0.80,0.72,-1.05,-0.81,
1.834,-1.83,1.07,-0.80,0.70,-1.01,-0.78,
1.835,-1.83,1.07,-0.80,0.68,-0.98,-0.74,
1.836,-2.15,1.20,-0.74,0.68,-0.98,-0.74,
1.836,-2.15,1.20,-0.74,0.65,-0.96,-0.70,
1.844,-2.15,1.20,-0.74,0.62,-0.94,-0.65,
1.845,-2.28,1.27,-0.75,0.62,-0.94,-0.65,
1.848,-2.28,1.27,-0.75,0.59,-0.93,-0.60,
1.849,-2.28,1.27,-0.75,0.56,-0.91,-0.55,
1.85,-2.28,1.27,-0.75,0.52,-0.89,-0.50,
1.85,-2.19,1.34,-1.00,0.52,-0.89,-0.50,
1.851,-2.19,1.34,-1.00,0.49,-0.86,-0.45,
1.852,-1.97,1.44,-1.48,0.49,-0.86,-0.45,
1.852,-1.97,1.44,-1.48,0.46,-0.82,-0.40,
1.854,-1.97,1.44,-1.48,0.42,-0.77,-0.35,
1.856,-1.74,1.53,-2.02,0.42,-0.77,-0.35,
1.856,-1.74,1.53,-2.02,0.38,-0.72,-0.31,
1.857,-1.74,1.53,-2.02,0.34,-0.65,-0.28,
1.859,-1.52,1.61,-2.44,0.34,-0.65,-0.28,
1.86,-1.52,1.61,-2.44,0.30,-0.58,-0.25,
1.863,-1.52,1.61,-2.44,0.25,-0.52,-0.22,
1.865,-1.19,1.48,-2.53,0.25,-0.52,-0.22,
1.866,-1.19,1.48,-2.53,0.21,-0.46,-0.20,
1.868,-1.19,1.48,-2.53,0.16,-0.41,-0.18,
1.871,-0.73,1.12,-2.41,0.16,-0.41,-0.18,
1.872,-0.73,1.12,-2.41,0.11,-0.37,-0.16,
1.872,-0.73,1.12,-2.41,0.07,-0.34,-0.15,
1.876,-0.09,0.73,-2.21,0.07,-0.34,-0.15,
1.876,-0.09,0.73,-2.21,0.02,-0.33,-0.14,
1.878,-0.09,0.73,-2.21,-0.06,-0.33,-0.13,
1.881,0.97,0.13,-3.90,-0.06,-0.33,-0.13,
1.882,0.97,0.13,-3.90,-0.18,-0.35,-0.13,
1.883,0.97,0.13,-3.90,-0.34,-0.39,-0.14,
1.886,2.20,-0.07,-6.05,-0.34,-0.39,-0.14,
1.886,2.20,-0.07,-6.05,-0.51,-0.43,-0.16,
1.887,2.20,-0.07,-6.05,-0.69,-0.47,-0.19,
1.89,3.22,0.11,-6.77,-0.69,-0.47,-0.19,
1.89,3.22,0.11,-6.77,-0.86,-0.50,-0.22,
1.892,3.22,0.11,-6.77,-1.02,-0.53,-0.27,
1.895,3.74,0.31,-6.45,-1.02,-0.53,-0.27,
1.897,3.74,0.31,-6.45,-1.16,-0.55,-0.32,
1.898,3.74,0.31,-6.45,-1.28,-0.55,-0.38,
1.901,3.05,0.43,-5.08,-1.28,-0.55,-0.38,
1.902,3.05,0.43,-5.08,-1.35,-0.55,-0.41,
1.903,3.05,0.43,-5.08,-1.38,-0.53,-0.45,
1.906,2.39,0.19,-2.70,-1.38,-0.53,-0.45,
1.907,2.39,0.19,-2.70,-1.38,-0.51,-0.49,
1.907,2.39,0.19,-2.70,-1.35,-0.52,-0.54,
1.91,3.07,-0.35,-0.44,-1.35,-0.52,-0.54,
1.911,3.07,-0.35,-0.44,-1.29,-0.56,-0.60,
1.915,3.07,-0.35,-0.44,-1.23,-0.59,-0.67,
1.916,3.47,-0.58,0.74,-1.23,-0.59,-0.67,
1.916,3.47,-0.58,0.74,-1.16,-0.63,-0.74,
1.919,3.47,-0.58,0.74,-1.10,-0.67,-0.82,
1.921,3.59,-0.69,1.30,-1.10,-0.67,-0.82,
1.922,3.59,-0.69,1.30,-1.05,-0.71,-0.89,
1.923,3.59,-0.69,1.30,-1.00,-0.75,-0.97,
1.926,3.46,-0.68,1.47,-1.00,-0.75,-0.97,
1.927,3.46,-0.68,1.47,-0.96,-0.80,-1.03,
1.934,3.46,-0.68,1.47,-0.92,-0.84,-1.10,
1.935,3.21,-0.59,1.30,-0.92,-0.84,-1.10,
1.935,3.21,-0.59,1.30,-0.89,-0.86,-1.16,
1.936,3.21,-0.59,1.30,-0.87,-0.86,-1.21,
1.937,2.93,-0.39,0.89,-0.87,-0.86,-1.21,
1.937,2.93,-0.39,0.89,-0.85,-0.84,-1.26,
1.938,2.93,-0.39,0.89,-0.83,-0.80,-1.31,
1.942,2.41,-0.19,0.79,-0.83,-0.80,-1.31,
1.943,2.41,-0.19,0.79,-0.82,-0.77,-1.35,
1.944,2.41,-0.19,0.79,-0.81,-0.73,-1.37,
1.947,1.81,-0.00,0.86,-0.81,-0.73,-1.37,
1.948,1.81,-0.00,0.86,-0.79,-0.69,-1.39,
1.948,1.81,-0.00,0.86,-0.78,-0.66,-1.40,
1.95,1.40,0.11,0.95,-0.78,-0.66,-1.40,
1.951,1.40,0.11,0.95,-0.78,-0.64,-1.40,
1.953,1.40,0.11,0.95,-0.78,-0.64,-1.39,
1.957,0.50,-0.04,0.43,-0.78,-0.64,-1.39,
1.958,0.50,-0.04,0.43,-0.80,-0.67,-1.36,
1.958,0.50,-0.04,0.43,-0.86,-0.70,-1.31,
1.962,-0.70,-0.23,-1.08,-0.86,-0.70,-1.31,
1.963,-0.70,-0.23,-1.08,-0.92,-0.70,-1.26,
1.963,-0.70,-0.23,-1.08,-0.97,-0.68,-1.21,
1.965,-1.34,-0.19,-1.94,-0.97,-0.68,-1.21,
1.966,-1.34,-0.19,-1.94,-1.02,-0.64,-1.17,
1.969,-1.34,-0.19,-1.94,-1.07,-0.58,-1.13,
1.974,-1.68,-0.04,-2.39,-1.07,-0.58,-1.13,
1.974,-1.68,-0.04,-2.39,-1.11,-0.51,-1.09,
1.975,-1.68,-0.04,-2.39,-1.13,-0.43,-1.05,
1.976,-1.83,0.04,-2.20,-1.13,-0.43,-1.05,
1.976,-1.83,0.04,-2.20,-1.15,-0.35,-1.02,
1.978,-1.83,0.04,-2.20,-1.15,-0.26,-0.97,
1.98,-2.05,0.06,-1.71,-1.15,-0.26,-0.97,
1.981,-2.05,0.06,-1.71,-1.15,-0.17,-0.93,
1.983,-2.05,0.06,-1.71,-1.14,-0.09,-0.87,
1.985,-2.18,0.18,-1.15,-1.14,-0.09,-0.87,
1.986,-2.18,0.18,-1.15,-1.12,-0.02,-0.82,
1.987,-2.18,0.18,-1.15,-1.11,0.03,-0.75,
1.99,-2.09,0.27,-0.53,-1.11,0.03,-0.75,
1.991,-2.09,0.27,-0.53,-1.10,0.06,-0.69,
1.992,-2.09,0.27,-0.53,-1.09,0.09,-0.62,
1.999,-1.76,0.25,-0.32,-1.09,0.09,-0.62,
2.0,-1.76,0.25,-0.32,-1.07,0.13,-0.56,
2.001,-1.76,0.25,-0.32,-1.05,0.17,-0.52,
2.001,-0.69,-0.03,-0.50,-1.05,0.17,-0.52,
2.002,-0.69,-0.03,-0.50,-1.04,0.22,-0.49,
2.002,-0.69,-0.03,-0.50,-1.03,0.28,-0.49,
2.005,0.49,-0.41,-0.61,-1.03,0.28,-0.49,
2.006,0.49,-0.41,-0.61,-1.01,0.34,-0.50,
2.008,0.49,-0.41,-0.61,-1.00,0.40,-0.53,
2.01,1.68,-0.94,-0.43,-1.00,0.40,-0.53,
2.011,1.68,-0.94,-0.43,-0.99,0.46,-0.58,
2.019,1.68,-0.94,-0.43,-0.98,0.50,-0.64,
2.02,2.58,-1.50,0.19,-0.98,0.50,-0.64,
2.021,2.58,-1.50,0.19,-0.97,0.52,-0.71,
2.021,2.58,-1.50,0.19,-0.96,0.51,-0.79,
2.022,3.29,-2.02,0.93,-0.96,0.51,-0.79,
2.022,3.29,-2.02,0.93,-0.95,0.50,-0.88,
2.023,3.29,-2.02,0.93,-0.93,0.46,-0.98,
2.026,4.00,-2.45,1.56,-0.93,0.46,-0.98,
2.027,4.00,-2.45,1.56,-0.90,0.43,-1.08,
2.029,4.00,-2.45,1.56,-0.86,0.39,-1.21,
2.034,4.64,-2.61,2.12,-0.86,0.39,-1.21,
2.034,4.64,-2.61,2.12,-0.80,0.35,-1.34,
2.035,4.64,-2.61,2.12,-0.74,0.30,-1.48,
2.035,3.99,-2.12,2.14,-0.74,0.30,-1.48,
2.035,3.99,-2.12,2.14,-0.68,0.23,-1.60,
2.037,3.99,-2.12,2.14,-0.63,0.13,-1.69,
2.041,1.74,-1.16,1.33,-0.63,0.13,-1.69,
2.041,1.74,-1.16,1.33,-0.60,0.01,-1.77,
2.042,1.74,-1.16,1.33,-0.57,-0.11,-1.83,
2.047,-0.65,-0.28,0.34,-0.57,-0.11,-1.83,
2.048,-0.65,-0.28,0.34,-0.56,-0.25,-1.86,
2.049,-0.65,-0.28,0.34,-0.55,-0.39,-1.87,
2.052,-2.97,0.50,-0.42,-0.55,-0.39,-1.87,
2.052,-2.97,0.50,-0.42,-0.54,-0.50,-1.86,
2.053,-2.97,0.50,-0.42,-0.52,-0.59,-1.83,
2.057,-4.33,1.23,-0.27,-0.52,-0.59,-1.83,
2.057,-4.33,1.23,-0.27,-0.47,-0.68,-1.80,
2.058,-4.33,1.23,-0.27,-0.42,-0.76,-1.74,
2.062,-5.51,2.26,-0.05,-0.42,-0.76,-1.74,
2.062,-5.51,2.26,-0.05,-0.36,-0.83,-1.67,
2.066,-5.51,2.26,-0.05,-0.30,-0.90,-1.57,
2.067,-6.62,2.72,-0.02,-0.30,-0.90,-1.57,
2.068,-6.62,2.72,-0.02,-0.25,-0.96,-1.45,
2.068,-6.62,2.72,-0.02,-0.20,-1.01,-1.31,
2.072,-6.74,2.40,-0.18,-0.20,-1.01,-1.31,
2.073,-6.74,2.40,-0.18,-0.15,-1.03,-1.18,
2.075,-6.74,2.40,-0.18,-0.11,-1.03,-1.05,
2.075,-5.83,1.59,0.04,-0.11,-1.03,-1.05,
2.076,-5.83,1.59,0.04,-0.07,-1.02,-0.93,
2.08,-5.83,1.59,0.04,-0.03,-0.99,-0.85,
2.082,-4.15,1.28,0.07,-0.03,-0.99,-0.85,
2.082,-4.15,1.28,0.07,-0.00,-0.94,-0.79,
2.082,-4.15,1.28,0.07,0.02,-0.88,-0.75,
2.086,-3.07,1.76,-0.20,0.02,-0.88,-0.75,
2.087,-3.07,1.76,-0.20,0.04,-0.78,-0.72,
2.089,-3.07,1.76,-0.20,0.06,-0.67,-0.68,
2.092,-2.76,2.22,-0.68,0.06,-0.67,-0.68,
2.092,-2.76,2.22,-0.68,0.07,-0.55,-0.64,
2.093,-2.76,2.22,-0.68,0.07,-0.42,-0.60,
2.098,-2.09,2.13,-1.24,0.07,-0.42,-0.60,
2.099,-2.09,2.13,-1.24,0.06,-0.29,-0.56,
2.099,-2.09,2.13,-1.24,0.05,-0.17,-0.51,
2.102,-1.46,1.79,-1.08,0.05,-0.17,-0.51,
2.103,-1.46,1.79,-1.08,0.03,-0.06,-0.46,
2.103,-1.46,1.79,-1.08,0.01,0.03,-0.42,
2.106,-0.72,1.39,-0.84,0.01,0.03,-0.42,
2.107,-0.72,1.39,-0.84,-0.01,0.12,-0.37,
2.107,-0.72,1.39,-0.84,-0.03,0.19,-0.33,
2.111,-0.24,1.27,-0.67,-0.03,0.19,-0.33,
2.112,-0.24,1.27,-0.67,-0.05,0.25,-0.28,
2.119,-0.24,1.27,-0.67,-0.07,0.29,-0.24,
2.12,0.21,1.19,-0.91,-0.07,0.29,-0.24,
2.12,0.21,1.19,-0.91,-0.09,0.33,-0.20,
2.121,0.21,1.19,-0.91,-0.12,0.37,-0.16,
2.121,0.78,1.20,-1.43,-0.12,0.37,-0.16,
2.122,0.78,1.20,-1.43,-0.15,0.41,-0.13,
2.123,0.78,1.20,-1.43,-0.19,0.45,-0.12,
2.127,1.51,1.24,-1.96,-0.19,0.45,-0.12,
2.128,1.51,1.24,-1.96,-0.24,0.49,-0.12,
2.129,1.51,1.24,-1.96,-0.28,0.52,-0.12,
2.132,1.93,1.01,-1.58,-0.28,0.52,-0.12,
2.133,1.93,1.01,-1.58,-0.32,0.52,-0.12,
2.133,1.93,1.01,-1.58,-0.37,0.51,-0.12,
2.138,2.51,0.68,-0.79,-0.37,0.51,-0.12,
2.138,2.51,0.68,-0.79,-0.42,0.47,-0.14,
2.14,2.51,0.68,-0.79,-0.47,0.41,-0.17,
2.141,3.41,0.25,-0.26,-0.47,0.41,-0.17,
2.141,3.41,0.25,-0.26,-0.53,0.34,-0.21,
2.143,3.41,0.25,-0.26,-0.57,0.26,-0.26,
2.149,3.41,0.25,-0.26,-0.60,0.18,-0.31,
2.15,3.68,-0.45,0.56,-0.60,0.18,-0.31,
2.151,3.68,-0.45,0.56,-0.62,0.09,-0.37,
2.151,3.79,-0.70,0.66,-0.62,0.09,-0.37,
2.152,3.79,-0.70,0.66,-0.64,0.02,-0.43,
2.153,3.79,-0.70,0.66,-0.66,-0.05,-0.49,
2.157,3.79,-0.32,0.52,-0.66,-0.05,-0.49,
2.159,3.79,-0.32,0.52,-0.68,-0.12,-0.55,
2.159,3.79,-0.32,0.52,-0.68,-0.18,-0.61,
2.161,2.99,-0.77,-0.60,-0.68,-0.18,-0.61,
2.168,2.99,-0.77,-0.60,-0.72,-0.19,-0.66,
2.169,2.99,-0.77,-0.60,-0.81,-0.08,-0.72,
2.17,0.87,-5.02,-4.58,-0.81,-0.08,-0.72,
2.17,0.87,-5.02,-4.58,-0.91,0.02,-0.77,
2.171,0.87,-5.02,-4.58,-0.95,0.03,-0.81,
2.171,0.87,-5.02,-4.58,-0.95,-0.01,-0.82,
2.172,-1.46,-4.64,0.71,-0.95,-0.01,-0.82,
2.176,-1.46,-4.64,0.71,-0.94,-0.08,-0.79,
2.177,-1.46,-4.64,0.71,-0.93,-0.12,-0.72,
2.178,-3.60,-1.63,1.62,-0.93,-0.12,-0.72,
2.182,-3.96,0.71,0.45,-0.93,-0.12,-0.72,
2.183,-3.96,0.71,0.45,-0.93,-0.12,-0.64,
2.186,-3.96,0.71,0.45,-0.91,-0.10,-0.55,
2.186,-3.96,0.71,0.45,-0.88,-0.06,-0.49,
2.187,-2.71,1.34,-0.29,-0.88,-0.06,-0.49,
2.187,-2.71,1.34,-0.29,-0.84,-0.01,-0.43,
2.188,-2.71,1.34,-0.29,-0.79,0.04,-0.40,
2.192,-1.82,1.31,-0.40,-0.79,0.04,-0.40,
2.192,-1.82,1.31,-0.40,-0.73,0.09,-0.37,
2.193,-1.82,1.31,-0.40,-0.67,0.13,-0.36,
2.197,-1.50,0.97,-0.54,-0.67,0.13,-0.36,
2.198,-1.50,0.97,-0.54,-0.61,0.14,-0.35,
2.199,-1.50,0.97,-0.54,-0.54,0.14,-0.35,
2.201,-1.52,0.71,-0.53,-0.54,0.14,-0.35,
2.201,-1.52,0.71,-0.53,-0.47,0.11,-0.34,
2.204,-1.52,0.71,-0.53,-0.39,0.05,-0.35,
2.206,-1.77,0.61,-0.33,-0.39,0.05,-0.35,
2.207,-1.77,0.61,-0.33,-0.31,-0.03,-0.36,
2.209,-1.77,0.61,-0.33,-0.23,-0.12,-0.37,
2.211,-1.34,0.29,-0.44,-0.23,-0.12,-0.37,
2.211,-1.34,0.29,-0.44,-0.16,-0.21,-0.39,
2.216,-1.34,0.29,-0.44,-0.10,-0.30,-0.42,
2.217,-0.74,-0.14,-0.42,-0.10,-0.30,-0.42,
2.217,-0.74,-0.14,-0.42,-0.03,-0.39,-0.45,
2.218,-0.74,-0.14,-0.42,0.03,-0.47,-0.46,
2.22,-1.09,-0.12,-0.03,0.03,-0.47,-0.46,
2.221,-1.09,-0.12,-0.03,0.08,-0.60,-0.47,
2.224,-1.09,-0.12,-0.03,0.11,-0.74,-0.49,
2.226,-2.90,0.31,-0.50,0.11,-0.74,-0.49,
2.226,-2.90,0.31,-0.50,0.14,-0.82,-0.41,
2.229,-2.90,0.31,-0.50,0.16,-0.90,-0.31,
2.234,-4.84,1.73,-1.26,0.16,-0.90,-0.31,
2.235,-4.84,1.73,-1.26,0.17,-0.92,-0.17,
2.235,-4.84,1.73,-1.26,0.19,-0.88,0.02,
2.236,-8.00,4.26,-3.02,0.19,-0.88,0.02,
2.242,-8.00,4.26,-3.02,0.19,-0.79,0.28,
2.243,-8.00,4.26,-3.02,0.18,-0.65,0.64,
2.243,-12.14,10.57,-4.35,0.18,-0.65,0.64,
2.244,-12.14,10.57,-4.35,0.19,-0.49,1.09,
2.244,-12.14,10.57,-4.35,0.29,-0.42,1.48,
2.247,0.66,11.70,1.62,0.29,-0.42,1.48,
2.248,0.66,11.70,1.62,0.47,-0.45,1.56,
2.249,0.66,11.70,1.62,0.66,-0.43,1.39,
2.251,12.86,0.32,1.71,0.66,-0.43,1.39,
2.252,12.86,0.32,1.71,0.83,-0.37,1.12,
2.253,12.86,0.32,1.71,0.95,-0.25,0.87,
2.256,8.86,-5.22,-1.07,0.95,-0.25,0.87,
2.256,8.86,-5.22,-1.07,1.01,-0.08,0.71,
2.258,8.86,-5.22,-1.07,1.00,0.10,0.64,
2.262,2.46,-3.86,-2.19,1.00,0.10,0.64,
2.262,2.46,-3.86,-2.19,0.96,0.27,0.66,
2.265,2.46,-3.86,-2.19,0.90,0.42,0.76,
2.266,2.46,-3.86,-2.19,0.84,0.55,0.91,
2.267,-1.11,-0.76,-1.46,0.84,0.55,0.91,
2.269,-1.11,-0.76,-1.46,0.79,0.66,1.07,
2.272,-0.83,0.86,-0.39,0.79,0.66,1.07,
2.272,-0.83,0.86,-0.39,0.77,0.77,1.19,
2.273,-0.83,0.86,-0.39,0.78,0.88,1.27,
2.276,1.30,0.39,0.21,0.78,0.88,1.27,
2.276,1.30,0.39,0.21,0.81,1.00,1.29,
2.279,1.30,0.39,0.21,0.83,1.13,1.27,
2.282,3.24,-1.03,-1.20,0.83,1.13,1.27,
2.283,3.24,-1.03,-1.20,0.81,1.27,1.21,
2.284,3.24,-1.03,-1.20,0.72,1.39,1.15,
2.286,3.49,-1.35,-3.10,0.72,1.39,1.15,
2.287,3.49,-1.35,-3.10,0.53,1.48,1.08,
2.289,3.49,-1.35,-3.10,0.25,1.48,1.02,
2.291,2.79,-0.14,-2.46,0.25,1.48,1.02,
2.292,2.79,-0.14,-2.46,-0.06,1.44,0.95,
2.294,2.79,-0.14,-2.46,-0.38,1.36,0.90,
2.298,1.95,-0.38,-0.75,-0.38,1.36,0.90,
2.299,1.95,-0.38,-0.75,-0.70,1.28,0.87,
2.299,1.95,-0.38,-0.75,-0.98,1.23,0.85,
2.302,1.22,-1.16,-1.30,-0.98,1.23,0.85,
2.302,1.22,-1.16,-1.30,-1.22,1.27,0.82,
2.304,1.22,-1.16,-1.30,-1.42,1.36,0.79,
2.306,0.05,-1.29,-1.81,-1.42,1.36,0.79,
2.306,0.05,-1.29,-1.81,-1.59,1.47,0.78,
2.308,0.05,-1.29,-1.81,-1.72,1.58,0.77,
2.312,-1.15,-0.24,-0.38,-1.72,1.58,0.77,
2.312,-1.15,-0.24,-0.38,-1.81,1.65,0.79,
2.318,-1.15,-0.24,-0.38,-1.84,1.65,0.81,
2.319,-1.19,0.44,2.24,-1.84,1.65,0.81,
2.32,-1.19,0.44,2.24,-1.84,1.60,0.83,
2.32,-1.19,0.44,2.24,-1.83,1.54,0.83,
2.321,-0.46,0.59,2.07,-1.83,1.54,0.83,
2.322,-0.46,0.59,2.07,-1.80,1.47,0.81,
2.326,-0.46,0.59,2.07,-1.77,1.41,0.78,
2.327,-0.22,0.80,1.10,-1.77,1.41,0.78,
2.328,-0.22,0.80,1.10,-1.73,1.35,0.74,
2.333,-0.22,0.80,1.10,-1.69,1.29,0.70,
2.333,-0.47,0.63,0.19,-1.69,1.29,0.70,
2.334,-0.47,0.63,0.19,-1.66,1.23,0.65,
2.334,-0.47,0.63,0.19,-1.65,1.17,0.60,
2.338,-0.65,0.33,-1.03,-1.65,1.17,0.60,
2.339,-0.65,0.33,-1.03,-1.65,1.12,0.56,
2.339,-0.65,0.33,-1.03,-1.66,1.10,0.51,
2.343,-0.54,0.28,-1.60,-1.66,1.10,0.51,
2.343,-0.54,0.28,-1.60,-1.67,1.07,0.47,
2.344,-0.54,0.28,-1.60,-1.69,1.06,0.43,
2.348,0.16,0.49,-1.63,-1.69,1.06,0.43,
2.349,0.16,0.49,-1.63,-1.70,1.06,0.39,
2.35,0.16,0.49,-1.63,-1.68,1.05,0.36,
2.352,0.38,0.06,-0.62,-1.68,1.05,0.36,
2.353,0.38,0.06,-0.62,-1.65,1.03,0.34,
2.354,0.38,0.06,-0.62,-1.61,1.00,0.33,
2.358,0.11,-0.48,-0.36,-1.61,1.00,0.33,
2.359,0.11,-0.48,-0.36,-1.57,0.98,0.33,
2.359,0.11,-0.48,-0.36,-1.53,0.97,0.32,
2.362,0.59,-0.54,-0.25,-1.53,0.97,0.32,
2.363,0.59,-0.54,-0.25,-1.49,0.96,0.29,
2.363,0.59,-0.54,-0.25,-1.46,0.93,0.24,
2.368,1.48,-0.15,-0.01,-1.46,0.93,0.24,
2.369,1.48,-0.15,-0.01,-1.43,0.92,0.19,
2.369,1.48,-0.15,-0.01,-1.39,0.90,0.15,
2.373,1.81,0.15,0.64,-1.39,0.90,0.15,
2.374,1.81,0.15,0.64,-1.34,0.88,0.11,
2.374,1.81,0.15,0.64,-1.28,0.86,0.07,
2.378,1.66,-0.54,1.54,-1.28,0.86,0.07,
2.379,1.66,-0.54,1.54,-1.21,0.84,0.04,
2.379,1.66,-0.54,1.54,-1.14,0.81,0.02,
2.383,1.07,-1.40,2.22,-1.14,0.81,0.02,
2.383,1.07,-1.40,2.22,-1.07,0.75,-0.02,
2.384,1.07,-1.40,2.22,-1.00,0.69,-0.05,
2.388,0.26,-1.52,2.93,-1.00,0.69,-0.05,
2.388,0.26,-1.52,2.93,-0.91,0.61,-0.07,
2.389,0.26,-1.52,2.93,-0.83,0.53,-0.08,
2.393,0.02,-1.20,2.86,-0.83,0.53,-0.08,
2.393,0.02,-1.20,2.86,-0.75,0.46,-0.08,
2.394,0.02,-1.20,2.86,-0.69,0.38,-0.09,
2.398,0.63,-1.03,2.20,-0.69,0.38,-0.09,
2.399,0.63,-1.03,2.20,-0.63,0.29,-0.10,
2.399,0.63,-1.03,2.20,-0.57,0.24,-0.12,
2.402,1.13,-0.85,1.36,-0.57,0.24,-0.12,
2.403,1.13,-0.85,1.36,-0.50,0.21,-0.14,
2.404,1.13,-0.85,1.36,-0.45,0.16,-0.15,
2.407,0.85,-0.75,1.14,-0.45,0.16,-0.15,
2.408,0.85,-0.75,1.14,-0.38,0.11,-0.15,
2.41,0.85,-0.75,1.14,-0.31,0.05,-0.16,
2.412,0.51,-1.22,1.17,-0.31,0.05,-0.16,
2.413,0.51,-1.22,1.17,-0.24,-0.01,-0.16,
2.417,0.51,-1.22,1.17,-0.18,-0.09,-0.16,
2.418,0.26,-1.29,0.95,-0.18,-0.09,-0.16,
2.419,0.26,-1.29,0.95,-0.14,-0.18,-0.16,
2.419,0.26,-1.29,0.95,-0.11,-0.27,-0.18,
2.422,0.83,-1.00,0.31,-0.11,-0.27,-0.18,
2.422,0.83,-1.00,0.31,-0.09,-0.34,-0.21,
2.425,0.83,-1.00,0.31,-0.08,-0.39,-0.24,
2.427,1.17,-0.10,0.19,-0.08,-0.39,-0.24,
2.427,1.17,-0.10,0.19,-0.08,-0.45,-0.28,
2.433,1.17,-0.10,0.19,-0.07,-0.51,-0.32,
2.434,1.49,0.62,0.37,-0.07,-0.51,-0.32,
2.435,1.49,0.62,0.37,-0.06,-0.57,-0.36,
2.435,1.49,0.62,0.37,-0.05,-0.65,-0.41,
2.437,1.05,1.20,0.54,-0.05,-0.65,-0.41,
2.438,1.05,1.20,0.54,-0.03,-0.69,-0.43,
2.438,1.05,1.20,0.54,-0.00,-0.73,-0.46,
2.443,0.62,1.13,0.45,-0.00,-0.73,-0.46,
2.444,0.62,1.13,0.45,0.01,-0.77,-0.50,
2.445,0.62,1.13,0.45,0.00,-0.78,-0.53,
2.448,0.41,1.19,-0.34,0.00,-0.78,-0.53,
2.449,0.41,1.19,-0.34,-0.02,-0.77,-0.55,
2.45,0.41,1.19,-0.34,-0.06,-0.72,-0.56,
2.452,0.30,1.05,-1.08,-0.06,-0.72,-0.56,
2.453,0.30,1.05,-1.08,-0.12,-0.65,-0.56,
2.454,0.30,1.05,-1.08,-0.18,-0.57,-0.55,
2.456,0.24,0.68,-1.21,-0.18,-0.57,-0.55,
2.457,0.24,0.68,-1.21,-0.24,-0.48,-0.54,
2.458,0.24,0.68,-1.21,-0.31,-0.38,-0.52,
2.463,0.24,0.68,-1.21,-0.38,-0.28,-0.50,
2.465,-0.25,0.57,-1.39,-0.38,-0.28,-0.50,
2.466,-0.25,0.57,-1.39,-0.45,-0.19,-0.47,
2.467,-0.84,1.01,-1.75,-0.45,-0.19,-0.47,
2.467,-0.84,1.01,-1.75,-0.53,-0.10,-0.44,
2.469,-0.84,1.01,-1.75,-0.61,-0.02,-0.40,
2.472,-1.19,1.64,-1.86,-0.61,-0.02,-0.40,
2.474,-1.19,1.64,-1.86,-0.68,0.06,-0.36,
2.474,-1.19,1.64,-1.86,-0.74,0.13,-0.33,
2.476,-0.84,1.84,-1.64,-0.74,0.13,-0.33,
2.477,-0.84,1.84,-1.64,-0.80,0.18,-0.31,
2.48,-0.84,1.84,-1.64,-0.84,0.24,-0.30,
2.482,-0.43,1.75,-1.24,-0.84,0.24,-0.30,
2.482,-0.43,1.75,-1.24,-0.86,0.29,-0.29,
2.484,-0.43,1.75,-1.24,-0.87,0.30,-0.29,
2.486,-0.80,0.96,-0.87,-0.87,0.30,-0.29,
2.487,-0.80,0.96,-0.87,-0.88,0.29,-0.29,
2.493,-1.19,0.44,-1.58,-0.88,0.29,-0.29,
2.494,-1.19,0.44,-1.58,-0.89,0.29,-0.30,
2.494,-1.19,0.44,-1.58,-0.91,0.32,-0.31,
2.495,-1.19,0.44,-1.58,-0.94,0.39,-0.32,
2.5,-1.19,0.44,-1.58,-0.96,0.43,-0.33,
2.503,-0.83,0.61,-2.02,-0.96,0.43,-0.33,
2.504,-0.83,0.61,-2.02,-0.95,0.39,-0.35,
2.505,-0.83,0.61,-2.02,-0.93,0.36,-0.39,
2.505,-0.06,0.85,-0.16,-0.93,0.36,-0.39,
2.506,-0.06,0.85,-0.16,-0.87,0.33,-0.46,
2.507,-0.06,0.85,-0.16,-0.80,0.29,-0.54,
2.507,0.72,1.49,0.63,-0.80,0.29,-0.54,
2.51,0.72,1.49,0.63,-0.73,0.27,-0.62,
2.512,1.02,1.91,0.74,-0.73,0.27,-0.62,
2.513,1.02,1.91,0.74,-0.67,0.18,-0.70,
2.514,1.02,1.91,0.74,-0.57,0.05,-0.83,
2.517,1.02,1.91,0.74,-0.18,0.28,-1.05,
2.517,2.86,7.55,6.04,-0.18,0.28,-1.05,
2.519,2.86,7.55,6.04,-0.06,-0.16,-1.19,
2.522,4.16,0.13,2.28,-0.06,-0.16,-1.19,
2.522,4.16,0.13,2.28,-0.08,-0.58,-1.31,
2.524,4.16,0.13,2.28,-0.06,-0.72,-1.45,
2.526,1.41,-2.17,-0.63,-0.06,-0.72,-1.45,
2.527,1.41,-2.17,-0.63,-0.04,-0.76,-1.57,
2.529,1.41,-2.17,-0.63,-0.02,-0.79,-1.69,
2.534,1.93,2.11,2.10,-0.02,-0.79,-1.69,
2.534,1.93,2.11,2.10,0.07,-0.76,-1.88,
2.534,1.93,2.11,2.10,0.19,-0.72,-2.09,
2.537,1.96,4.94,5.29,0.19,-0.72,-2.09,
2.537,1.96,4.94,5.29,0.30,-0.71,-2.22,
2.539,1.96,4.94,5.29,0.35,-0.82,-2.27,
2.541,-0.31,-1.10,1.43,0.35,-0.82,-2.27,
2.542,-0.31,-1.10,1.43,0.35,-0.91,-2.28,
2.545,-0.31,-1.10,1.43,0.29,-0.89,-2.26,
2.552,-2.97,-5.62,-3.87,0.29,-0.89,-2.26,
2.553,-2.97,-5.62,-3.87,0.20,-0.84,-2.20,
2.553,-2.97,-5.62,-3.87,0.06,-0.75,-2.09,
2.554,-5.59,-4.35,-4.09,0.06,-0.75,-2.09,
2.554,-5.59,-4.35,-4.09,-0.04,-0.78,-1.95,
2.555,-5.59,-4.35,-4.09,-0.14,-1.67,-1.83,
2.557,-3.46,2.89,-3.41,-0.14,-1.67,-1.83,
2.558,-3.46,2.89,-3.41,-0.20,-2.09,-1.75,
2.56,-3.46,2.89,-3.41,-0.34,-1.77,-1.65,
2.564,-2.83,2.18,-5.92,-0.34,-1.77,-1.65,
2.565,-2.83,2.18,-5.92,-0.52,-1.42,-1.52,
2.565,-2.83,2.18,-5.92,-0.60,-1.33,-1.38,
2.567,-7.62,-0.19,4.21,-0.60,-1.33,-1.38,
2.568,-7.62,-0.19,4.21,-0.55,-1.83,-1.22,
2.569,-7.62,-0.19,4.21,-0.41,-2.37,-0.92,
2.573,-5.12,2.75,2.86,-0.41,-2.37,-0.92,
2.574,-5.12,2.75,2.86,-0.30,-2.49,-0.58,
2.574,-5.12,2.75,2.86,-0.25,-2.37,-0.30,
2.578,-5.12,2.75,2.86,-0.27,-2.21,-0.12,
2.579,2.63,3.97,-1.09,-0.27,-2.21,-0.12,
2.583,5.99,0.56,1.71,-0.27,-2.21,-0.12,
2.587,4.87,-1.27,1.93,-0.27,-2.21,-0.12,
2.588,4.87,-1.27,1.93,-0.32,-2.18,-0.07,
2.588,4.87,-1.27,1.93,-0.36,-2.16,-0.10,
2.589,4.87,-1.27,1.93,-0.39,-2.07,-0.19,
2.589,4.87,-1.27,1.93,-0.39,-1.92,-0.25,
2.59,4.87,-1.27,1.93,-0.38,-1.83,-0.24,
2.592,1.51,-0.30,2.46,-0.38,-1.83,-0.24,
2.593,1.51,-0.30,2.46,-0.31,-1.87,-0.20,
2.596,1.51,-0.30,2.46,-0.25,-1.77,-0.13,
2.597,0.15,1.36,-0.67,-0.25,-1.77,-0.13,
2.598,0.15,1.36,-0.67,-0.22,-1.60,-0.05,
2.604,0.56,2.03,-1.18,-0.22,-1.60,-0.05,
2.605,0.56,2.03,-1.18,-0.22,-1.47,0.02,
2.605,0.56,2.03,-1.18,-0.21,-1.33,0.07,
2.605,0.56,2.03,-1.18,-0.23,-1.05,0.09,
2.606,-0.38,0.34,-4.34,-0.23,-1.05,0.09,
2.607,-0.38,0.34,-4.34,-0.31,-0.65,0.10,
2.61,-0.38,0.34,-4.34,-0.43,-0.35,0.14,
2.612,-1.86,-2.73,-3.62,-0.43,-0.35,0.14,
2.612,-1.86,-2.73,-3.62,-0.49,-0.15,0.18,
2.614,-1.86,-2.73,-3.62,-0.52,-0.02,0.23,
2.617,-1.72,-5.56,-2.02,-0.52,-0.02,0.23,
2.618,-1.72,-5.56,-2.02,-0.55,0.08,0.28,
2.619,-1.72,-5.56,-2.02,-0.59,0.15,0.30,
2.622,-1.12,-6.26,-1.24,-0.59,0.15,0.30,
2.622,-1.12,-6.26,-1.24,-0.61,0.20,0.31,
2.624,-1.12,-6.26,-1.24,-0.63,0.25,0.29,
2.631,-0.41,-6.45,-0.78,-0.63,0.25,0.29,
2.632,-0.41,-6.45,-0.78,-0.63,0.29,0.28,
2.632,-0.41,-6.45,-0.78,-0.62,0.30,0.25,
2.632,0.16,-7.39,1.06,-0.62,0.30,0.25,
2.633,0.16,-7.39,1.06,-0.58,0.25,0.21,
2.635,0.16,-7.39,1.06,-0.52,0.18,0.14,
2.637,0.47,-8.13,1.90,-0.52,0.18,0.14,
2.637,0.47,-8.13,1.90,-0.47,0.12,0.08,
2.639,0.47,-8.13,1.90,-0.43,0.13,0.03,
2.642,-1.22,-7.28,0.55,-0.43,0.13,0.03,
2.642,-1.22,-7.28,0.55,-0.41,0.14,0.05,
2.646,-1.22,-7.28,0.55,-0.35,0.08,0.12,
2.647,-1.62,-4.27,1.77,-0.35,0.08,0.12,
2.647,-1.62,-4.27,1.77,-0.28,-0.02,0.16,
2.65,-1.62,-4.27,1.77,-0.20,-0.12,0.16,
2.652,0.75,-4.98,1.95,-0.20,-0.12,0.16,
2.653,0.75,-4.98,1.95,-0.14,-0.22,0.14,
2.654,0.75,-4.98,1.95,-0.07,-0.31,0.14,
2.658,1.54,-5.04,1.69,-0.07,-0.31,0.14,
2.658,1.54,-5.04,1.69,-0.01,-0.37,0.14,
2.66,1.54,-5.04,1.69,0.03,-0.40,0.14,
2.663,1.89,-4.47,0.93,0.03,-0.40,0.14,
2.666,1.89,-4.47,0.93,0.08,-0.42,0.14,
2.666,1.89,-4.47,0.93,0.12,-0.44,0.13,
2.667,2.50,-3.77,1.15,0.12,-0.44,0.13,
2.668,2.50,-3.77,1.15,0.18,-0.48,0.10,
2.669,2.50,-3.77,1.15,0.24,-0.51,0.07,
2.672,1.52,-4.09,-0.20,0.24,-0.51,0.07,
2.672,1.52,-4.09,-0.20,0.26,-0.46,0.06,
2.675,1.52,-4.09,-0.20,0.28,-0.45,0.04,
2.677,1.35,-4.79,1.31,0.28,-0.45,0.04,
2.678,1.35,-4.79,1.31,0.31,-0.53,0.00,
2.68,1.35,-4.79,1.31,0.38,-0.63,-0.02,
2.681,1.00,-4.17,2.32,0.38,-0.63,-0.02,
2.682,1.00,-4.17,2.32,0.44,-0.70,-0.03,
2.685,1.00,-4.17,2.32,0.50,-0.77,-0.05,
2.687,0.91,-3.94,1.81,0.50,-0.77,-0.05,
2.687,0.91,-3.94,1.81,0.55,-0.82,-0.07,
2.689,0.91,-3.94,1.81,0.59,-0.86,-0.08,
2.692,0.85,-3.70,1.24,0.59,-0.86,-0.08,
2.693,0.85,-3.70,1.24,0.63,-0.88,-0.09,
2.694,0.85,-3.70,1.24,0.66,-0.88,-0.11,
2.697,0.85,-3.70,1.24,0.68,-0.90,-0.16,
2.697,1.26,-4.09,0.89,0.68,-0.90,-0.16,
2.7,1.26,-4.09,0.89,0.70,-0.98,-0.22,
2.703,2.54,-6.27,4.28,0.70,-0.98,-0.22,
2.703,2.54,-6.27,4.28,0.71,-1.22,-0.34,
2.705,2.54,-6.27,4.28,0.78,-1.32,-0.47,
2.707,2.87,-5.62,1.19,0.78,-1.32,-0.47,
2.707,2.87,-5.62,1.19,0.89,-1.15,-0.53,
2.709,2.87,-5.62,1.19,0.93,-0.99,-0.54,
2.715,1.25,-1.90,-0.87,0.93,-0.99,-0.54,
2.716,1.25,-1.90,-0.87,0.93,-0.90,-0.54,
2.716,1.25,-1.90,-0.87,0.92,-0.87,-0.55,
2.718,1.09,-0.32,-0.23,0.92,-0.87,-0.55,
2.718,1.09,-0.32,-0.23,0.90,-0.83,-0.58,
2.72,1.09,-0.32,-0.23,0.89,-0.71,-0.61,
2.722,0.48,0.83,-1.75,0.89,-0.71,-0.61,
2.723,0.48,0.83,-1.75,0.86,-0.63,-0.62,
2.724,0.48,0.83,-1.75,0.82,-0.57,-0.60,
2.727,-0.73,1.99,-1.34,0.82,-0.57,-0.60,
2.727,-0.73,1.99,-1.34,0.78,-0.53,-0.57,
2.73,-0.73,1.99,-1.34,0.74,-0.47,-0.50,
2.732,-2.03,3.40,-1.45,0.74,-0.47,-0.50,
2.732,-2.03,3.40,-1.45,0.68,-0.44,-0.38,
2.735,-2.03,3.40,-1.45,0.63,-0.41,-0.23,
2.738,-3.20,5.33,-1.72,0.63,-0.41,-0.23,
2.738,-3.20,5.33,-1.72,0.57,-0.35,-0.03,
2.74,-3.20,5.33,-1.72,0.50,-0.25,0.15,
2.742,-2.73,6.43,-3.32,0.50,-0.25,0.15,
2.743,-2.73,6.43,-3.32,0.45,-0.10,0.26,
2.746,-2.73,6.43,-3.32,0.40,0.04,0.28,
2.747,-1.54,6.57,-3.16,0.40,0.04,0.28,
2.747,-1.54,6.57,-3.16,0.38,0.13,0.24,
2.75,-1.54,6.57,-3.16,0.35,0.21,0.17,
2.753,-0.74,6.52,-3.64,0.35,0.21,0.17,
2.753,-0.74,6.52,-3.64,0.29,0.29,0.06,
2.754,-0.74,6.52,-3.64,0.22,0.27,-0.04,
2.758,-0.63,5.99,-1.83,0.22,0.27,-0.04,
2.759,-0.63,5.99,-1.83,0.15,0.23,-0.12,
2.76,-0.63,5.99,-1.83,0.08,0.23,-0.16,
2.763,-1.45,5.16,-2.06,0.08,0.23,-0.16,
2.764,-1.45,5.16,-2.06,0.02,0.25,-0.18,
2.764,-1.45,5.16,-2.06,-0.03,0.27,-0.18,
2.767,-2.07,3.48,-1.05,-0.03,0.27,-0.18,
2.768,-2.07,3.48,-1.05,-0.06,0.25,-0.17,
2.769,-2.07,3.48,-1.05,-0.07,0.18,-0.14,
2.772,-2.21,2.06,0.29,-0.07,0.18,-0.14,
2.772,-2.21,2.06,0.29,-0.08,0.11,-0.10,
2.774,-2.21,2.06,0.29,-0.08,0.06,-0.06,
2.778,-1.48,0.84,0.41,-0.08,0.06,-0.06,
2.778,-1.48,0.84,0.41,-0.08,0.03,-0.03,
2.781,-1.48,0.84,0.41,-0.08,-0.00,0.00,
2.782,-0.54,0.01,0.42,-0.08,-0.00,0.00,
2.783,-0.54,0.01,0.42,-0.07,-0.01,0.02,
2.785,-0.54,0.01,0.42,-0.06,-0.02,0.04,
2.787,0.16,-0.39,0.06,-0.06,-0.02,0.04,
2.788,0.16,-0.39,0.06,-0.05,-0.01,0.05,
2.789,0.16,-0.39,0.06,-0.05,-0.01,0.06,
2.793,0.52,-0.48,0.00,-0.05,-0.01,0.06,
2.793,0.52,-0.48,0.00,-0.04,-0.02,0.06,
2.796,0.52,-0.48,0.00,-0.04,-0.03,0.06,
2.797,0.75,-0.63,-0.52,-0.04,-0.03,0.06,
2.797,0.75,-0.63,-0.52,-0.03,-0.01,0.06,
2.8,0.75,-0.63,-0.52,-0.04,0.05,0.05,
2.803,0.74,-0.65,-0.70,-0.04,0.05,0.05,
2.803,0.74,-0.65,-0.70,-0.06,0.02,0.05,
2.806,0.74,-0.65,-0.70,-0.05,-0.05,0.06,
2.808,0.36,-0.55,1.28,-0.05,-0.05,0.06,
2.808,0.36,-0.55,1.28,-0.03,-0.12,0.07,
2.81,0.36,-0.55,1.28,-0.01,-0.14,0.08,
2.813,0.55,-0.83,0.44,-0.01,-0.14,0.08,
2.813,0.55,-0.83,0.44,0.01,-0.13,0.08,
2.815,0.55,-0.83,0.44,0.02,-0.13,0.08,
2.818,0.65,-0.80,0.01,0.02,-0.13,0.08,
2.818,0.65,-0.80,0.01,0.03,-0.12,0.08,
2.821,0.65,-0.80,0.01,0.03,-0.11,0.08,
2.822,0.65,-0.74,-0.06,0.03,-0.11,0.08,
2.823,0.65,-0.74,-0.06,0.04,-0.11,0.08,
2.825,0.65,-0.74,-0.06,0.04,-0.11,0.08,
2.827,0.51,-0.59,-0.11,0.04,-0.11,0.08,
2.828,0.51,-0.59,-0.11,0.04,-0.11,0.07,
2.831,0.51,-0.59,-0.11,0.05,-0.10,0.07,
2.836,0.34,-0.43,-0.27,0.05,-0.10,0.07,
2.837,0.34,-0.43,-0.27,0.05,-0.09,0.06,
2.837,0.34,-0.43,-0.27,0.04,-0.08,0.06,
2.837,0.17,-0.34,-0.44,0.04,-0.08,0.06,
2.841,0.17,-0.34,-0.44,0.04,-0.07,0.05,
2.841,0.17,-0.34,-0.44,0.03,-0.06,0.04,
2.843,-0.03,-0.30,-0.40,0.03,-0.06,0.04,
2.843,-0.03,-0.30,-0.40,0.03,-0.05,0.04,
2.845,-0.03,-0.30,-0.40,0.03,-0.04,0.05,
2.848,-0.09,-0.41,-0.30,0.03,-0.04,0.05,
2.848,-0.09,-0.41,-0.30,0.03,-0.04,0.05,
2.851,-0.09,-0.41,-0.30,0.02,-0.02,0.04,
2.852,0.31,-0.15,-0.37,0.02,-0.02,0.04,
2.853,0.31,-0.15,-0.37,0.02,-0.01,0.02,
2.854,0.31,-0.15,-0.37,0.01,0.05,-0.01,
2.858,0.33,-0.26,-0.94,0.01,0.05,-0.01,
2.858,0.33,-0.26,-0.94,-0.01,0.06,-0.02,
2.86,0.33,-0.26,-0.94,-0.01,0.02,-0.02,
2.864,-0.46,0.12,0.74,-0.01,0.02,-0.02,
2.864,-0.46,0.12,0.74,-0.01,-0.02,-0.01,
2.865,-0.46,0.12,0.74,0.01,-0.03,-0.00,
2.867,-0.38,-0.21,0.32,0.01,-0.03,-0.00,
2.867,-0.38,-0.21,0.32,0.02,-0.02,-0.00,
2.869,-0.38,-0.21,0.32,0.02,-0.01,-0.00,
2.873,0.09,-0.49,-0.04,0.02,-0.01,-0.00,
2.873,0.09,-0.49,-0.04,0.01,-0.01,-0.02,
2.875,0.09,-0.49,-0.04,0.01,-0.01,-0.03,
2.878,0.21,-0.32,0.00,0.01,-0.01,-0.03,
2.879,0.21,-0.32,0.00,0.02,-0.02,-0.03,
2.88,0.21,-0.32,0.00,0.02,-0.02,-0.03,
2.883,0.03,-0.28,-0.01,0.02,-0.02,-0.03,
2.883,0.03,-0.28,-0.01,0.02,-0.02,-0.03,
2.886,0.03,-0.28,-0.01,0.02,-0.01,-0.02,
2.888,0.02,-0.29,-0.14,0.02,-0.01,-0.02,
2.888,0.02,-0.29,-0.14,0.02,-0.00,-0.02,
2.889,0.02,-0.29,-0.14,0.02,0.01,-0.03,
2.892,0.10,-0.28,-0.18,0.02,0.01,-0.03,
2.892,0.10,-0.28,-0.18,0.02,0.01,-0.03,
2.896,0.10,-0.28,-0.18,0.02,0.02,-0.03,
2.899,0.14,-0.28,-0.34,0.02,0.02,-0.03,
2.899,0.14,-0.28,-0.34,0.01,0.02,-0.03,
2.9,0.14,-0.28,-0.34,0.01,0.03,-0.04,
2.902,0.14,-0.28,-0.45,0.01,0.03,-0.04,
2.903,0.14,-0.28,-0.45,-0.01,0.04,-0.04,
2.905,0.14,-0.28,-0.45,-0.01,0.05,-0.04,
2.908,0.22,-0.27,-0.17,-0.01,0.05,-0.04,
2.909,0.22,-0.27,-0.17,-0.01,0.04,-0.04,
2.91,0.22,-0.27,-0.17,-0.01,0.04,-0.04,
2.914,0.21,-0.23,-0.14,-0.01,0.04,-0.04,
2.915,0.21,-0.23,-0.14,-0.01,0.03,-0.04,
2.915,0.21,-0.23,-0.14,-0.01,0.03,-0.04,
2.918,0.24,-0.23,-0.21,-0.01,0.03,-0.04,
2.918,0.24,-0.23,-0.21,-0.01,0.03,-0.04,
2.92,0.24,-0.23,-0.21,-0.01,0.02,-0.04,
2.924,0.33,-0.26,-0.21,-0.01,0.02,-0.04,
2.924,0.33,-0.26,-0.21,-0.02,0.02,-0.05,
2.927,0.33,-0.26,-0.21,-0.02,0.02,-0.05,
2.928,0.29,-0.15,-0.24,-0.02,0.02,-0.05,
2.928,0.29,-0.15,-0.24,-0.03,0.02,-0.05,
2.933,0.29,-0.15,-0.24,-0.03,0.02,-0.05,
2.934,0.26,-0.04,-0.14,-0.03,0.02,-0.05,
2.934,0.26,-0.04,-0.14,-0.03,0.02,-0.05,
2.937,0.26,-0.04,-0.14,-0.03,0.03,-0.05,
2.938,0.21,0.12,-0.04,-0.03,0.03,-0.05,
2.938,0.21,0.12,-0.04,-0.03,0.03,-0.05,
2.941,0.21,0.12,-0.04,-0.03,0.03,-0.05,
2.942,0.19,0.23,-0.02,-0.03,0.03,-0.05,
2.943,0.19,0.23,-0.02,-0.03,0.04,-0.05,
2.946,0.19,0.23,-0.02,-0.03,0.04,-0.05,
2.948,0.24,0.25,-0.07,-0.03,0.04,-0.05,
2.948,0.24,0.25,-0.07,-0.03,0.04,-0.05,
2.95,0.24,0.25,-0.07,-0.03,0.05,-0.06,
2.953,0.20,0.36,-0.13,-0.03,0.05,-0.06,
2.953,0.20,0.36,-0.13,-0.03,0.05,-0.06,
2.954,0.20,0.36,-0.13,-0.04,0.05,-0.07,
2.958,0.03,0.55,-0.15,-0.04,0.05,-0.07,
2.958,0.03,0.55,-0.15,-0.04,0.05,-0.06,
2.96,0.03,0.55,-0.15,-0.05,0.05,-0.05,
2.963,-0.01,0.59,0.02,-0.05,0.05,-0.05,
2.963,-0.01,0.59,0.02,-0.05,0.05,-0.05,
2.965,-0.01,0.59,0.02,-0.04,0.05,-0.04,
2.968,-0.01,0.50,0.12,-0.04,0.05,-0.04,
2.969,-0.01,0.50,0.12,-0.04,0.04,-0.04,
2.97,-0.01,0.50,0.12,-0.05,0.04,-0.04,
2.972,-0.02,0.43,-0.02,-0.05,0.04,-0.04,
2.973,-0.02,0.43,-0.02,-0.05,0.03,-0.03,
2.976,-0.02,0.43,-0.02,-0.05,0.02,-0.03,
2.977,0.00,0.41,-0.11,-0.05,0.02,-0.03,
2.978,0.00,0.41,-0.11,-0.05,0.01,-0.02,
2.981,0.00,0.41,-0.11,-0.06,0.00,-0.01,
2.983,0.01,0.41,-0.13,-0.06,0.00,-0.01,
2.983,0.01,0.41,-0.13,-0.06,-0.00,-0.00,
2.985,0.01,0.41,-0.13,-0.07,-0.00,0.01,
2.989,0.05,0.48,-0.12,-0.07,-0.00,0.01,
2.989,0.05,0.48,-0.12,-0.08,-0.01,0.01,
2.99,0.05,0.48,-0.12,-0.07,-0.01,0.01,
2.993,-0.05,0.56,0.12,-0.07,-0.01,0.01,
2.994,-0.05,0.56,0.12,-0.07,-0.03,0.01,
2.995,-0.05,0.56,0.12,-0.07,-0.04,0.00,
2.999,-0.24,0.75,0.05,-0.07,-0.04,0.00,
2.999,-0.24,0.75,0.05,-0.07,-0.05,0.00,
3.001,-0.24,0.75,0.05,-0.07,-0.06,0.00,
3.003,-0.42,1.12,0.04,-0.07,-0.06,0.00,
3.003,-0.42,1.12,0.04,-0.07,-0.08,0.00,
3.005,-0.42,1.12,0.04,-0.08,-0.09,0.01,
3.008,-0.57,1.95,-0.09,-0.08,-0.09,0.01,
3.009,-0.57,1.95,-0.09,-0.09,-0.10,0.01,
3.011,-0.57,1.95,-0.09,-0.10,-0.10,0.02,
3.014,-0.55,3.02,-0.39,-0.10,-0.10,0.02,
3.014,-0.55,3.02,-0.39,-0.13,-0.11,0.01,
3.016,-0.55,3.02,-0.39,-0.17,-0.10,0.01,
3.017,-0.45,3.49,-0.86,-0.17,-0.10,0.01,
3.018,-0.45,3.49,-0.86,-0.21,-0.09,0.00,
3.021,-0.45,3.49,-0.86,-0.24,-0.07,0.00,
3.023,-0.62,2.97,-1.14,-0.24,-0.07,0.00,
3.023,-0.62,2.97,-1.14,-0.27,-0.04,0.00,
3.026,-0.62,2.97,-1.14,-0.30,-0.00,0.02,
3.028,-0.89,1.59,-0.83,-0.30,-0.00,0.02,
3.028,-0.89,1.59,-0.83,-0.32,0.01,0.04,
3.032,-0.89,1.59,-0.83,-0.33,0.00,0.07,
3.033,-0.53,-0.67,0.40,-0.33,0.00,0.07,
3.033,-0.53,-0.67,0.40,-0.31,-0.01,0.10,
3.037,-0.53,-0.67,0.40,-0.29,-0.02,0.13,
3.038,0.21,-1.97,0.67,-0.29,-0.02,0.13,
3.039,0.21,-1.97,0.67,-0.26,-0.01,0.15,
3.041,0.21,-1.97,0.67,-0.25,0.02,0.17,
3.043,1.09,-2.37,0.74,-0.25,0.02,0.17,
3.043,1.09,-2.37,0.74,-0.24,0.01,0.18,
3.047,1.09,-2.37,0.74,-0.21,0.01,0.19,
3.048,1.11,-1.58,0.63,-0.21,0.01,0.19,
3.049,1.11,-1.58,0.63,-0.20,0.02,0.21,
3.051,1.11,-1.58,0.63,-0.17,0.01,0.21,
3.053,1.58,-1.76,0.56,-0.17,0.01,0.21,
3.054,1.58,-1.76,0.56,-0.15,0.01,0.20,
3.055,1.58,-1.76,0.56,-0.13,0.00,0.18,
3.058,1.77,-2.04,0.32,-0.13,0.00,0.18,
3.058,1.77,-2.04,0.32,-0.11,-0.00,0.17,
3.06,1.77,-2.04,0.32,-0.09,0.00,0.16,
3.063,1.62,-1.77,-0.01,-0.09,0.00,0.16,
3.064,1.62,-1.77,-0.01,-0.07,0.01,0.15,
3.065,1.62,-1.77,-0.01,-0.06,0.02,0.14,
3.068,1.19,-0.91,-0.37,-0.06,0.02,0.14,
3.069,1.19,-0.91,-0.37,-0.06,0.04,0.15,
3.071,1.19,-0.91,-0.37,-0.05,0.06,0.16,
3.073,0.99,-0.51,-0.64,-0.05,0.06,0.16,
3.073,0.99,-0.51,-0.64,-0.05,0.09,0.16,
3.075,0.99,-0.51,-0.64,-0.04,0.10,0.16,
3.078,0.84,-0.44,-0.45,-0.04,0.10,0.16,
3.079,0.84,-0.44,-0.45,-0.04,0.12,0.17,
3.081,0.84,-0.44,-0.45,-0.04,0.13,0.17,
3.084,0.70,-0.24,-0.52,-0.04,0.13,0.17,
3.084,0.70,-0.24,-0.52,-0.04,0.15,0.18,
3.087,0.70,-0.24,-0.52,-0.05,0.17,0.18,
3.089,0.47,0.10,-0.57,-0.05,0.17,0.18,
3.089,0.47,0.10,-0.57,-0.05,0.18,0.19,
3.091,0.47,0.10,-0.57,-0.06,0.20,0.20,
3.093,0.17,0.43,-0.54,-0.06,0.20,0.20,
3.093,0.17,0.43,-0.54,-0.07,0.21,0.20,
3.096,0.17,0.43,-0.54,-0.08,0.23,0.21,
3.098,-0.10,0.61,-0.47,-0.08,0.23,0.21,
3.098,-0.10,0.61,-0.47,-0.08,0.24,0.22,
3.102,-0.10,0.61,-0.47,-0.08,0.25,0.24,
3.103,-0.71,1.13,-0.41,-0.08,0.25,0.24,
3.103,-0.71,1.13,-0.41,-0.09,0.26,0.26,
3.105,-0.71,1.13,-0.41,-0.09,0.27,0.29,
3.109,-0.91,1.10,-0.45,-0.09,0.27,0.29,
3.11,-0.91,1.10,-0.45,-0.10,0.28,0.32,
3.11,-0.91,1.10,-0.45,-0.10,0.25,0.35,
3.115,0.31,2.46,2.46,-0.10,0.25,0.35,
3.115,0.31,2.46,2.46,-0.02,-0.05,0.39,
3.116,0.31,2.46,2.46,0.01,-0.20,0.43,
3.119,0.01,2.73,0.19,0.01,-0.20,0.43,
3.119,0.01,2.73,0.19,-0.01,-0.18,0.45,
3.121,0.01,2.73,0.19,-0.03,-0.12,0.48,
3.123,-0.64,1.28,-0.52,-0.03,-0.12,0.48,
3.123,-0.64,1.28,-0.52,-0.03,-0.09,0.50,
3.125,-0.64,1.28,-0.52,-0.02,-0.10,0.53,
3.129,-1.25,1.86,-0.07,-0.02,-0.10,0.53,
3.129,-1.25,1.86,-0.07,-0.01,-0.12,0.59,
3.134,-1.25,1.86,-0.07,-0.02,-0.13,0.66,
3.134,-1.33,2.53,-0.51,-0.02,-0.13,0.66,
3.134,-1.33,2.53,-0.51,-0.02,-0.13,0.72,
3.138,-1.33,2.53,-0.51,-0.02,-0.13,0.78,
3.138,-1.11,2.48,-0.60,-0.02,-0.13,0.78,
3.138,-1.11,2.48,-0.60,-0.03,-0.14,0.83,
3.141,-1.11,2.48,-0.60,-0.03,-0.15,0.88,
3.143,-0.86,2.36,-0.43,-0.03,-0.15,0.88,
3.143,-0.86,2.36,-0.43,-0.04,-0.17,0.92,
3.147,-0.86,2.36,-0.43,-0.06,-0.19,0.95,
3.149,-0.61,1.42,-0.57,-0.06,-0.19,0.95,
3.15,-0.61,1.42,-0.57,-0.09,-0.20,0.96,
3.151,-0.61,1.42,-0.57,-0.12,-0.22,0.97,
3.153,-0.07,0.11,-0.34,-0.12,-0.22,0.97,
3.154,-0.07,0.11,-0.34,-0.13,-0.23,0.95,
3.155,-0.07,0.11,-0.34,-0.13,-0.23,0.93,
3.158,-0.43,1.46,-0.89,-0.13,-0.23,0.93,
3.159,-0.43,1.46,-0.89,-0.19,-0.25,0.93,
3.161,-0.43,1.46,-0.89,-0.39,-0.28,0.94,
3.164,-0.07,2.88,-2.40,-0.39,-0.28,0.94,
3.167,-0.07,2.88,-2.40,-0.42,-0.16,0.90,
3.167,-0.07,2.88,-2.40,-0.30,-0.12,0.81,
3.17,0.29,0.36,-0.53,-0.30,-0.12,0.81,
3.171,0.29,0.36,-0.53,-0.28,-0.17,0.75,
3.171,0.29,0.36,-0.53,-0.36,-0.21,0.72,
3.174,-0.35,1.07,-1.55,-0.36,-0.21,0.72,
3.174,-0.35,1.07,-1.55,-0.45,-0.19,0.69,
3.176,-0.35,1.07,-1.55,-0.50,-0.15,0.65,
3.179,0.15,0.01,-1.49,-0.50,-0.15,0.65,
3.179,0.15,0.01,-1.49,-0.54,-0.12,0.60,
3.181,0.15,0.01,-1.49,-0.58,-0.09,0.54,
3.184,0.57,-0.55,-1.46,-0.58,-0.09,0.54,
3.184,0.57,-0.55,-1.46,-0.63,-0.05,0.48,
3.187,0.57,-0.55,-1.46,-0.67,-0.00,0.40,
3.189,0.95,-0.77,-1.12,-0.67,-0.00,0.40,
3.189,0.95,-0.77,-1.12,-0.69,0.04,0.32,
3.191,0.95,-0.77,-1.12,-0.71,0.08,0.25,
3.194,0.91,-0.18,-0.73,-0.71,0.08,0.25,
3.194,0.91,-0.18,-0.73,-0.72,0.11,0.20,
3.195,0.91,-0.18,-0.73,-0.73,0.14,0.15,
3.202,0.90,0.80,-0.54,-0.73,0.14,0.15,
3.202,0.90,0.80,-0.54,-0.75,0.16,0.12,
3.202,0.90,0.80,-0.54,-0.76,0.17,0.08,
3.204,0.89,1.07,-0.21,-0.76,0.17,0.08,
3.205,0.89,1.07,-0.21,-0.76,0.17,0.07,
3.206,0.89,1.07,-0.21,-0.76,0.18,0.05,
3.209,0.94,0.24,0.01,-0.76,0.18,0.05,
3.209,0.94,0.24,0.01,-0.76,0.18,0.03,
3.211,0.94,0.24,0.01,-0.75,0.18,0.02,
3.213,0.94,-0.55,0.71,-0.75,0.18,0.02,
3.214,0.94,-0.55,0.71,-0.73,0.16,0.00,
3.219,0.94,-0.55,0.71,-0.70,0.15,-0.00,
3.22,1.10,-0.57,0.92,-0.70,0.15,-0.00,
3.22,1.10,-0.57,0.92,-0.65,0.16,-0.01,
3.221,1.10,-0.57,0.92,-0.61,0.16,-0.04,
3.224,1.49,-0.94,1.52,-0.61,0.16,-0.04,
3.224,1.49,-0.94,1.52,-0.58,0.12,-0.06,
3.226,1.49,-0.94,1.52,-0.55,0.06,-0.08,
3.232,1.00,-1.65,2.16,-0.55,0.06,-0.08,
3.232,1.00,-1.65,2.16,-0.52,-0.03,-0.08,
3.233,1.00,-1.65,2.16,-0.48,-0.06,-0.06,
3.234,-0.06,-1.58,1.39,-0.48,-0.06,-0.06,
3.234,-0.06,-1.58,1.39,-0.45,-0.09,-0.03,
3.236,-0.06,-1.58,1.39,-0.43,-0.13,0.00,
3.241,-0.44,-1.90,1.11,-0.43,-0.13,0.00,
3.242,-0.44,-1.90,1.11,-0.42,-0.16,0.01,
3.242,-0.44,-1.90,1.11,-0.41,-0.20,0.02,
3.243,-0.53,-2.01,1.02,-0.41,-0.20,0.02,
3.244,-0.53,-2.01,1.02,-0.39,-0.23,0.02,
3.246,-0.53,-2.01,1.02,-0.37,-0.23,0.01,
3.251,-0.17,-1.26,0.26,-0.37,-0.23,0.01,
3.252,-0.17,-1.26,0.26,-0.36,-0.23,0.00,
3.252,-0.17,-1.26,0.26,-0.36,-0.23,-0.02,
3.254,0.13,-0.27,0.20,-0.36,-0.23,-0.02,
3.254,0.13,-0.27,0.20,-0.35,-0.24,-0.04,
3.256,0.13,-0.27,0.20,-0.35,-0.26,-0.06,
3.258,0.25,0.48,0.08,-0.35,-0.26,-0.06,
3.258,0.25,0.48,0.08,-0.35,-0.27,-0.07,
3.262,0.25,0.48,0.08,-0.35,-0.28,-0.08,
3.264,0.26,0.01,-0.09,-0.35,-0.28,-0.08,
3.264,0.26,0.01,-0.09,-0.35,-0.28,-0.10,
3.268,0.26,0.01,-0.09,-0.35,-0.28,-0.11,
3.268,-0.17,0.01,-0.17,-0.35,-0.28,-0.11,
3.269,-0.17,0.01,-0.17,-0.36,-0.29,-0.11,
3.271,-0.17,0.01,-0.17,-0.36,-0.29,-0.11,
3.274,-0.33,0.39,-0.20,-0.36,-0.29,-0.11,
3.274,-0.33,0.39,-0.20,-0.38,-0.30,-0.10,
3.277,-0.33,0.39,-0.20,-0.40,-0.30,-0.11,
3.279,0.08,1.07,-0.27,-0.40,-0.30,-0.11,
3.279,0.08,1.07,-0.27,-0.42,-0.31,-0.12,
3.281,0.08,1.07,-0.27,-0.42,-0.28,-0.14,
3.284,0.75,1.64,0.16,-0.42,-0.28,-0.14,
3.285,0.75,1.64,0.16,-0.42,-0.31,-0.16,
3.286,0.75,1.64,0.16,-0.43,-0.39,-0.18,
3.289,0.91,-0.18,0.14,-0.43,-0.39,-0.18,
3.289,0.91,-0.18,0.14,-0.44,-0.44,-0.20,
3.291,0.91,-0.18,0.14,-0.45,-0.45,-0.23,
3.294,0.68,-0.07,-0.16,-0.45,-0.45,-0.23,
3.295,0.68,-0.07,-0.16,-0.46,-0.48,-0.25,
3.297,0.68,-0.07,-0.16,-0.47,-0.49,-0.28,
3.299,0.82,-0.01,-0.36,-0.47,-0.49,-0.28,
3.299,0.82,-0.01,-0.36,-0.48,-0.51,-0.31,
3.302,0.82,-0.01,-0.36,-0.49,-0.53,-0.32,
3.304,0.49,0.29,-0.16,-0.49,-0.53,-0.32,
3.305,0.49,0.29,-0.16,-0.50,-0.56,-0.33,
3.306,0.49,0.29,-0.16,-0.50,-0.59,-0.32,
3.309,0.17,0.46,-0.01,-0.50,-0.59,-0.32,
3.309,0.17,0.46,-0.01,-0.52,-0.64,-0.31,
3.312,0.17,0.46,-0.01,-0.53,-0.70,-0.30,
3.313,-0.18,0.44,0.24,-0.53,-0.70,-0.30,
3.314,-0.18,0.44,0.24,-0.53,-0.75,-0.28,
3.316,-0.18,0.44,0.24,-0.54,-0.80,-0.25,
3.319,-0.13,0.19,0.07,-0.54,-0.80,-0.25,
3.32,-0.13,0.19,0.07,-0.55,-0.86,-0.24,
3.322,-0.13,0.19,0.07,-0.58,-0.93,-0.23,
3.324,-0.22,1.45,0.04,-0.58,-0.93,-0.23,
3.325,-0.22,1.45,0.04,-0.60,-1.01,-0.20,
3.326,-0.22,1.45,0.04,-0.64,-1.15,-0.18,
3.332,0.06,2.10,1.06,-0.64,-1.15,-0.18,
3.332,0.06,2.10,1.06,-0.68,-1.35,-0.18,
3.335,0.06,2.10,1.06,-0.69,-1.52,-0.22,
3.335,1.08,0.57,1.25,-0.69,-1.52,-0.22,
3.336,1.08,0.57,1.25,-0.67,-1.63,-0.27,
3.338,1.08,0.57,1.25,-0.68,-1.73,-0.30,
3.339,0.07,2.26,0.41,-0.68,-1.73,-0.30,
3.339,0.07,2.26,0.41,-0.75,-1.88,-0.29,
3.341,0.07,2.26,0.41,-0.86,-2.12,-0.25,
3.344,-1.46,5.89,2.95,-0.86,-2.12,-0.25,
3.345,-1.46,5.89,2.95,-0.96,-2.49,-0.23,
3.347,-1.46,5.89,2.95,-1.05,-3.05,-0.23,
3.349,-3.96,10.24,11.40,-1.05,-3.05,-0.23,
3.35,-3.96,10.24,11.40,-1.12,-3.81,-0.22,
3.352,-3.96,10.24,11.40,-0.87,-4.35,-0.20,
3.354,-6.22,7.22,16.21,-0.87,-4.35,-0.20,
3.355,-6.22,7.22,16.21,-0.45,-4.56,-0.16,
3.357,-6.22,7.22,16.21,-0.14,-4.46,-0.13,
3.358,-2.41,-0.79,0.62,-0.14,-4.46,-0.13,
3.359,-2.41,-0.79,0.62,0.12,-3.86,-0.11,
3.361,-2.41,-0.79,0.62,0.15,-3.24,-0.09,
3.365,1.37,-0.26,-9.75,0.15,-3.24,-0.09,
3.366,1.37,-0.26,-9.75,0.00,-2.85,-0.10,
3.366,1.37,-0.26,-9.75,-0.15,-2.46,-0.10,
3.37,1.19,4.24,-8.78,-0.15,-2.46,-0.10,
3.371,1.19,4.24,-8.78,-0.29,-2.15,-0.09,
3.371,1.19,4.24,-8.78,-0.38,-1.96,-0.07,
3.373,-1.73,7.11,-4.29,-0.38,-1.96,-0.07,
3.374,-1.73,7.11,-4.29,-0.47,-1.93,-0.01,
3.376,-1.73,7.11,-4.29,-0.59,-2.12,0.08,
3.379,-3.80,5.00,0.34,-0.59,-2.12,0.08,
3.38,-3.80,5.00,0.34,-0.66,-2.32,0.14,
3.382,-3.80,5.00,0.34,-0.68,-2.44,0.16,
3.386,-3.39,-1.17,-0.44,-0.68,-2.44,0.16,
3.387,-3.39,-1.17,-0.44,-0.70,-2.45,0.21,
3.387,-3.39,-1.17,-0.44,-0.71,-2.29,0.29,
3.39,-3.65,-0.97,-4.16,-0.71,-2.29,0.29,
3.39,-3.65,-0.97,-4.16,-0.77,-2.07,0.40,
3.391,-3.65,-0.97,-4.16,-1.08,-2.27,0.61,
3.393,-3.41,1.55,-1.64,-1.08,-2.27,0.61,
3.394,-3.41,1.55,-1.64,-1.18,-2.27,0.68,
3.396,-3.41,1.55,-1.64,-1.14,-2.22,0.61,
3.4,-0.44,-2.28,-1.39,-1.14,-2.22,0.61,
3.4,-0.44,-2.28,-1.39,-1.01,-2.09,0.52,
3.402,-0.44,-2.28,-1.39,-0.91,-1.97,0.45,
3.405,-0.70,-0.15,-1.61,-0.91,-1.97,0.45,
3.405,-0.70,-0.15,-1.61,-0.91,-2.01,0.42,
3.406,-0.70,-0.15,-1.61,-1.05,-2.32,0.47,
3.41,-4.85,6.79,5.52,-1.05,-2.32,0.47,
3.41,-4.85,6.79,5.52,-1.36,-3.17,0.67,
3.411,-4.85,6.79,5.52,-1.56,-4.18,0.91,
3.414,-4.83,3.67,11.37,-1.56,-4.18,0.91,
3.415,-4.83,3.67,11.37,-1.37,-4.73,0.97,
3.417,-4.83,3.67,11.37,-0.94,-4.85,0.87,
3.42,-0.89,-1.28,3.35,-0.94,-4.85,0.87,
3.42,-0.89,-1.28,3.35,-0.46,-4.68,0.76,
3.422,-0.89,-1.28,3.35,-0.06,-4.31,0.67,
3.425,0.30,0.46,-7.92,-0.06,-4.31,0.67,
3.425,0.30,0.46,-7.92,0.13,-3.69,0.64,
3.428,0.30,0.46,-7.92,0.11,-3.04,0.67,
3.429,0.18,2.98,-10.65,0.11,-3.04,0.67,
3.43,0.18,2.98,-10.65,-0.01,-2.55,0.70,
3.431,0.18,2.98,-10.65,-0.13,-2.21,0.79,
3.435,-0.38,0.48,-3.61,-0.13,-2.21,0.79,
3.436,-0.38,0.48,-3.61,-0.19,-2.15,0.89,
3.436,-0.38,0.48,-3.61,-0.26,-2.33,0.97,
3.439,-1.26,-4.93,2.98,-0.26,-2.33,0.97,
3.439,-1.26,-4.93,2.98,-0.33,-2.62,1.03,
3.441,-1.26,-4.93,2.98,-0.34,-2.86,1.09,
3.445,-1.00,-8.88,4.13,-0.34,-2.86,1.09,
3.445,-1.00,-8.88,4.13,-0.33,-3.06,1.12,
3.446,-1.00,-8.88,4.13,-0.40,-3.24,1.17,
3.45,-1.93,-5.53,2.64,-0.40,-3.24,1.17,
3.45,-1.93,-5.53,2.64,-0.53,-3.40,1.24,
3.454,-1.93,-5.53,2.64,-0.61,-3.45,1.32,
3.455,-1.22,-3.81,1.47,-0.61,-3.45,1.32,
3.455,-1.22,-3.81,1.47,-0.73,-3.57,1.35,
3.456,-1.22,-3.81,1.47,-0.89,-3.78,1.39,
3.46,-1.56,-2.45,2.04,-0.89,-3.78,1.39,
3.46,-1.56,-2.45,2.04,-0.92,-3.84,1.49,
3.462,-1.56,-2.45,2.04,-0.84,-3.74,1.54,
3.465,0.46,-4.72,-1.13,-0.84,-3.74,1.54,
3.466,0.46,-4.72,-1.13,-0.77,-3.56,1.55,
3.466,0.46,-4.72,-1.13,-0.76,-3.37,1.54,
3.47,2.24,-4.09,-3.58,-0.76,-3.37,1.54,
3.47,2.24,-4.09,-3.58,-0.80,-3.17,1.54,
3.472,2.24,-4.09,-3.58,-0.83,-2.94,1.53,
3.474,2.68,-2.82,-3.74,-0.83,-2.94,1.53,
3.474,2.68,-2.82,-3.74,-0.83,-2.68,1.51,
3.477,2.68,-2.82,-3.74,-0.83,-2.47,1.48,
3.479,2.99,-2.05,-2.56,-0.83,-2.47,1.48,
3.48,2.99,-2.05,-2.56,-0.85,-2.33,1.42,
3.483,2.99,-2.05,-2.56,-0.82,-2.24,1.34,
3.485,3.46,-2.72,-1.02,-0.82,-2.24,1.34,
3.485,3.46,-2.72,-1.02,-0.78,-2.16,1.22,
3.487,3.46,-2.72,-1.02,-0.74,-2.10,1.10,
3.489,3.03,-2.29,-0.29,-0.74,-2.10,1.10,
3.49,3.03,-2.29,-0.29,-0.73,-2.09,1.00,
3.491,3.03,-2.29,-0.29,-0.73,-2.10,0.90,
3.495,2.53,-1.54,-0.19,-0.73,-2.10,0.90,
3.495,2.53,-1.54,-0.19,-0.70,-2.07,0.83,
3.496,2.53,-1.54,-0.19,-0.65,-2.01,0.80,
3.501,1.22,1.23,1.75,-0.65,-2.01,0.80,
3.501,1.22,1.23,1.75,-0.84,-2.40,0.86,
3.502,1.22,1.23,1.75,-0.97,-2.85,0.92,
3.504,1.27,0.98,3.86,-0.97,-2.85,0.92,
3.505,1.27,0.98,3.86,-0.91,-3.02,0.91,
3.507,1.27,0.98,3.86,-0.77,-2.95,0.89,
3.51,2.32,1.92,-1.80,-0.77,-2.95,0.89,
3.51,2.32,1.92,-1.80,-0.66,-2.71,0.86,
3.512,2.32,1.92,-1.80,-0.57,-2.32,0.79,
3.515,3.58,4.39,-6.31,-0.57,-2.32,0.79,
3.515,3.58,4.39,-6.31,-0.52,-1.85,0.69,
3.517,3.58,4.39,-6.31,-0.49,-1.40,0.56,
3.52,3.72,5.95,-5.91,-0.49,-1.40,0.56,
3.52,3.72,5.95,-5.91,-0.49,-1.09,0.43,
3.522,3.72,5.95,-5.91,-0.47,-0.95,0.30,
3.524,2.32,4.24,-1.15,-0.47,-0.95,0.30,
3.524,2.32,4.24,-1.15,-0.44,-1.00,0.18,
3.526,2.32,4.24,-1.15,-0.45,-1.21,0.16,
3.532,2.32,4.24,-1.15,-0.43,-1.43,0.16,
3.532,-0.09,2.94,2.39,-0.43,-1.43,0.16,
3.533,-0.09,2.94,2.39,-0.41,-1.67,0.17,
3.534,-1.00,1.61,2.34,-0.41,-1.67,0.17,
3.535,-1.00,1.61,2.34,-0.38,-1.83,0.21,
3.538,-1.00,1.61,2.34,-0.32,-1.86,0.25,
3.541,-1.35,1.53,0.16,-0.32,-1.86,0.25,
3.542,-1.35,1.53,0.16,-0.27,-1.84,0.31,
3.542,-1.35,1.53,0.16,-0.23,-1.77,0.39,
3.544,-1.72,2.15,-1.02,-0.23,-1.77,0.39,
3.544,-1.72,2.15,-1.02,-0.19,-1.70,0.48,
3.547,-1.72,2.15,-1.02,-0.17,-1.63,0.56,
3.55,-1.66,2.17,-0.88,-0.17,-1.63,0.56,
3.55,-1.66,2.17,-0.88,-0.13,-1.57,0.65,
3.552,-1.66,2.17,-0.88,-0.09,-1.50,0.70,
3.555,-1.11,1.19,-1.22,-0.09,-1.50,0.70,
3.556,-1.11,1.19,-1.22,-0.07,-1.40,0.74,
3.556,-1.11,1.19,-1.22,-0.05,-1.31,0.76,
3.56,-0.86,-0.14,-1.42,-0.05,-1.31,0.76,
3.56,-0.86,-0.14,-1.42,-0.04,-1.21,0.79,
3.562,-0.86,-0.14,-1.42,-0.07,-1.17,0.84,
3.566,-1.17,-1.07,-0.78,-0.07,-1.17,0.84,
3.566,-1.17,-1.07,-0.78,-0.14,-1.18,0.90,
3.567,-1.17,-1.07,-0.78,-0.17,-1.21,0.94,
3.57,-0.86,-3.37,-0.11,-0.17,-1.21,0.94,
3.571,-0.86,-3.37,-0.11,-0.18,-1.25,0.98,
3.571,-0.86,-3.37,-0.11,-0.19,-1.26,1.02,
3.576,-0.72,-3.50,-0.60,-0.19,-1.26,1.02,
3.576,-0.72,-3.50,-0.60,-0.20,-1.23,1.07,
3.576,-0.72,-3.50,-0.60,-0.23,-1.19,1.11,
3.581,-0.34,-2.73,-1.06,-0.23,-1.19,1.11,
3.581,-0.34,-2.73,-1.06,-0.26,-1.15,1.14,
3.582,-0.34,-2.73,-1.06,-0.30,-1.06,1.14,
3.587,0.49,-2.97,-1.16,-0.30,-1.06,1.14,
3.588,0.49,-2.97,-1.16,-0.32,-0.98,1.08,
3.588,0.49,-2.97,-1.16,-0.35,-0.91,1.01,
3.59,0.72,-3.00,-0.56,-0.35,-0.91,1.01,
3.59,0.72,-3.00,-0.56,-0.37,-0.88,0.92,
3.591,0.72,-3.00,-0.56,-0.38,-0.86,0.80,
3.595,1.11,-2.95,-0.05,-0.38,-0.86,0.80,
3.595,1.11,-2.95,-0.05,-0.36,-0.85,0.66,
3.597,1.11,-2.95,-0.05,-0.33,-0.82,0.54,
3.6,0.32,-2.79,-0.37,-0.33,-0.82,0.54,
3.601,0.32,-2.79,-0.37,-0.29,-0.77,0.45,
3.603,0.32,-2.79,-0.37,-0.26,-0.71,0.39,
3.605,-0.37,-3.08,-1.01,-0.26,-0.71,0.39,
3.605,-0.37,-3.08,-1.01,-0.21,-0.64,0.35,
3.606,-0.37,-3.08,-1.01,-0.16,-0.53,0.32,
3.61,-0.55,-4.19,-1.84,-0.16,-0.53,0.32,
3.61,-0.55,-4.19,-1.84,-0.13,-0.40,0.31,
3.612,-0.55,-4.19,-1.84,-0.11,-0.23,0.31,
3.614,0.12,-3.90,-2.57,-0.11,-0.23,0.31,
3.615,0.12,-3.90,-2.57,-0.11,-0.05,0.29,
3.617,0.12,-3.90,-2.57,-0.12,0.10,0.25,
3.621,0.73,-3.77,-2.06,-0.12,0.10,0.25,
3.621,0.73,-3.77,-2.06,-0.14,0.23,0.20,
3.621,0.73,-3.77,-2.06,-0.17,0.33,0.14,
3.625,0.59,-3.71,-1.25,-0.17,0.33,0.14,
3.626,0.59,-3.71,-1.25,-0.18,0.41,0.09,
3.627,0.59,-3.71,-1.25,-0.19,0.44,0.05,
3.632,0.22,-2.92,0.44,-0.19,0.44,0.05,
3.632,0.22,-2.92,0.44,-0.21,0.41,0.02,
3.633,0.22,-2.92,0.44,-0.21,0.38,-0.00,
3.635,0.12,-3.02,0.88,-0.21,0.38,-0.00,
3.635,0.12,-3.02,0.88,-0.21,0.34,-0.02,
3.637,0.12,-3.02,0.88,-0.21,0.29,-0.04,
3.64,0.50,-2.23,1.06,-0.21,0.29,-0.04,
3.641,0.50,-2.23,1.06,-0.21,0.23,-0.06,
3.642,0.50,-2.23,1.06,-0.21,0.19,-0.07,
3.645,0.05,-2.38,0.52,-0.21,0.19,-0.07,
3.646,0.05,-2.38,0.52,-0.21,0.16,-0.06,
3.647,0.05,-2.38,0.52,-0.20,0.14,-0.05,
3.652,0.07,-1.77,0.48,-0.20,0.14,-0.05,
3.652,0.07,-1.77,0.48,-0.19,0.09,-0.04,
3.652,0.07,-1.77,0.48,-0.18,0.05,-0.05,
3.656,0.31,-2.10,-0.09,-0.18,0.05,-0.05,
3.656,0.31,-2.10,-0.09,-0.18,0.04,-0.06,
3.656,0.31,-2.10,-0.09,-0.17,0.05,-0.06,
3.66,0.26,-2.15,-0.59,-0.17,0.05,-0.06,
3.661,0.26,-2.15,-0.59,-0.17,0.06,-0.07,
3.662,0.26,-2.15,-0.59,-0.16,0.07,-0.07,
3.666,0.24,-2.19,-0.58,-0.16,0.07,-0.07,
3.669,0.24,-2.19,-0.58,-0.16,0.07,-0.08,
3.669,0.24,-2.19,-0.58,-0.15,0.08,-0.10,
3.67,0.55,-2.27,-0.45,-0.15,0.08,-0.10,
3.67,0.55,-2.27,-0.45,-0.14,0.08,-0.12,
3.673,0.55,-2.27,-0.45,-0.14,0.07,-0.14,
3.675,0.66,-1.90,-0.39,-0.14,0.07,-0.14,
3.675,0.66,-1.90,-0.39,-0.14,0.08,-0.15,
3.678,0.66,-1.90,-0.39,-0.14,0.09,-0.16,
3.68,0.24,-1.41,-0.50,-0.14,0.09,-0.16,
3.681,0.24,-1.41,-0.50,-0.14,0.10,-0.15,
3.682,0.24,-1.41,-0.50,-0.15,0.12,-0.15,
3.687,0.06,-1.04,-0.44,-0.15,0.12,-0.15,
3.688,0.06,-1.04,-0.44,-0.15,0.14,-0.14,
3.688,0.06,-1.04,-0.44,-0.15,0.15,-0.12,
3.689,-0.04,-0.71,-0.36,-0.15,0.15,-0.12,
3.69,-0.04,-0.71,-0.36,-0.14,0.17,-0.10,
3.693,-0.04,-0.71,-0.36,-0.13,0.18,-0.09,
3.694,0.09,-0.69,-0.37,-0.13,0.18,-0.09,
3.694,0.09,-0.69,-0.37,-0.11,0.20,-0.07,
3.697,0.09,-0.69,-0.37,-0.10,0.22,-0.05,
3.701,0.39,-0.28,-0.60,-0.10,0.22,-0.05,
3.701,0.39,-0.28,-0.60,-0.10,0.24,-0.04,
3.703,0.39,-0.28,-0.60,-0.10,0.28,-0.03,
3.705,0.63,0.78,-0.86,-0.10,0.28,-0.03,
3.706,0.63,0.78,-0.86,-0.11,0.31,-0.03,
3.707,0.63,0.78,-0.86,-0.12,0.34,-0.03,
3.71,0.71,1.60,-0.82,-0.12,0.34,-0.03,
3.71,0.71,1.60,-0.82,-0.14,0.37,-0.03,
3.714,0.71,1.60,-0.82,-0.15,0.39,-0.05,
3.715,0.41,1.26,-0.16,-0.15,0.39,-0.05,
3.718,0.41,1.26,-0.16,-0.16,0.39,-0.07,
3.719,0.41,1.26,-0.16,-0.16,0.37,-0.08,
3.721,-0.09,1.50,0.34,-0.16,0.37,-0.08,
3.722,-0.09,1.50,0.34,-0.14,0.34,-0.08,
3.724,-0.09,1.50,0.34,-0.13,0.31,-0.07,
3.724,-0.61,1.34,0.27,-0.13,0.31,-0.07,
3.725,-0.61,1.34,0.27,-0.12,0.29,-0.05,
3.727,-0.61,1.34,0.27,-0.10,0.28,-0.03,
3.73,-0.59,1.52,0.03,-0.10,0.28,-0.03,
3.73,-0.59,1.52,0.03,-0.09,0.27,-0.00,
3.732,-0.59,1.52,0.03,-0.07,0.24,0.02,
3.736,-0.46,0.54,0.25,-0.07,0.24,0.02,
3.736,-0.46,0.54,0.25,-0.07,0.21,0.03,
3.738,-0.46,0.54,0.25,-0.06,0.21,0.03,
3.74,-0.39,-0.26,-0.40,-0.06,0.21,0.03,
3.741,-0.39,-0.26,-0.40,-0.07,0.22,0.04,
3.742,-0.39,-0.26,-0.40,-0.07,0.23,0.05,
3.745,-0.18,0.27,0.29,-0.07,0.23,0.05,
3.745,-0.18,0.27,0.29,-0.07,0.18,0.06,
3.747,-0.18,0.27,0.29,-0.07,0.13,0.06,
3.749,0.02,-0.56,0.19,-0.07,0.13,0.06,
3.753,0.02,-0.56,0.19,-0.07,0.13,0.05,
3.753,0.02,-0.56,0.19,-0.08,0.15,0.05,
3.755,-0.10,-0.87,-0.23,-0.08,0.15,0.05,
3.755,-0.10,-0.87,-0.23,-0.08,0.18,0.06,
3.757,-0.10,-0.87,-0.23,-0.08,0.18,0.08,
3.76,-0.03,-0.99,0.03,-0.08,0.18,0.08,
3.761,-0.03,-0.99,0.03,-0.09,0.18,0.09,
3.763,-0.03,-0.99,0.03,-0.09,0.18,0.11,
3.766,0.15,-0.86,0.26,-0.09,0.18,0.11,
3.766,0.15,-0.86,0.26,-0.09,0.17,0.13,
3.77,0.15,-0.86,0.26,-0.08,0.16,0.15,
3.77,0.32,-0.90,0.06,-0.08,0.16,0.15,
3.77,0.32,-0.90,0.06,-0.08,0.17,0.17,
3.772,0.32,-0.90,0.06,-0.06,0.18,0.19,
3.775,0.43,-0.83,-0.08,-0.06,0.18,0.19,
3.776,0.43,-0.83,-0.08,-0.05,0.20,0.20,
3.778,0.43,-0.83,-0.08,-0.03,0.20,0.22,
3.78,0.65,-1.38,0.40,-0.03,0.20,0.22,
3.781,0.65,-1.38,0.40,-0.01,0.17,0.23,
3.782,0.65,-1.38,0.40,0.01,0.12,0.24,
3.786,1.17,-1.00,0.34,0.01,0.12,0.24,
3.786,1.17,-1.00,0.34,0.02,0.08,0.24,
3.787,1.17,-1.00,0.34,0.02,0.07,0.24,
3.789,1.35,-0.02,-0.43,0.02,0.07,0.24,
3.79,1.35,-0.02,-0.43,0.01,0.08,0.21,
3.792,1.35,-0.02,-0.43,-0.00,0.09,0.18,
3.795,0.99,0.76,-0.39,-0.00,0.09,0.18,
3.796,0.99,0.76,-0.39,-0.02,0.10,0.15,
3.798,0.99,0.76,-0.39,-0.03,0.11,0.11,
3.801,0.31,0.63,0.01,-0.03,0.11,0.11,
3.802,0.31,0.63,0.01,-0.04,0.11,0.07,
3.803,0.31,0.63,0.01,-0.03,0.11,0.03,
3.805,-0.33,0.30,0.32,-0.03,0.11,0.03,
3.805,-0.33,0.30,0.32,-0.03,0.10,-0.01,
3.807,-0.33,0.30,0.32,-0.02,0.08,-0.03,
3.81,-0.85,0.12,0.54,-0.02,0.08,-0.03,
3.81,-0.85,0.12,0.54,-0.00,0.05,-0.04,
3.812,-0.85,0.12,0.54,0.00,0.01,-0.04,
3.815,-1.08,-0.10,0.41,0.00,0.01,-0.04,
3.815,-1.08,-0.10,0.41,0.01,-0.02,-0.03,
3.817,-1.08,-0.10,0.41,0.01,-0.04,-0.02,
3.82,-1.18,-0.33,0.11,0.01,-0.04,-0.02,
3.821,-1.18,-0.33,0.11,0.01,-0.06,-0.00,
3.823,-1.18,-0.33,0.11,0.00,-0.08,0.02,
3.826,-0.83,-0.36,0.08,0.00,-0.08,0.02,
3.827,-0.83,-0.36,0.08,-0.01,-0.11,0.03,
3.827,-0.83,-0.36,0.08,-0.02,-0.13,0.04,
3.831,-0.40,-0.26,-0.12,-0.02,-0.13,0.04,
3.832,-0.40,-0.26,-0.12,-0.03,-0.14,0.04,
3.839,-0.40,-0.26,-0.12,-0.03,-0.14,0.04,
3.84,-0.38,0.00,-0.30,-0.03,-0.14,0.04,
3.84,-0.38,0.00,-0.30,-0.04,-0.14,0.04,
3.841,-0.38,0.00,-0.30,-0.04,-0.13,0.04,
3.841,-0.34,0.18,-0.29,-0.04,-0.13,0.04,
3.842,-0.34,0.18,-0.29,-0.04,-0.12,0.04,
3.843,-0.34,0.18,-0.29,-0.04,-0.09,0.04,
3.845,-0.21,0.32,-0.31,-0.04,-0.09,0.04,
3.846,-0.21,0.32,-0.31,-0.03,-0.07,0.04,
3.848,-0.21,0.32,-0.31,-0.03,-0.04,0.05,
3.85,-0.07,0.29,-0.35,-0.03,-0.04,0.05,
3.85,-0.07,0.29,-0.35,-0.03,-0.00,0.05,
3.853,-0.07,0.29,-0.35,-0.03,0.03,0.05,
3.855,0.13,0.45,-0.37,-0.03,0.03,0.05,
3.855,0.13,0.45,-0.37,-0.04,0.07,0.05,
3.857,0.13,0.45,-0.37,-0.03,0.09,0.05,
3.861,0.28,0.16,-0.09,-0.03,0.09,0.05,
3.861,0.28,0.16,-0.09,-0.03,0.11,0.03,
3.863,0.28,0.16,-0.09,-0.02,0.12,0.03,
3.866,0.28,0.16,-0.09,-0.01,0.12,0.02,
3.866,0.02,0.25,0.08,-0.01,0.12,0.02,
3.871,0.02,0.25,0.08,0.00,0.11,0.03,
3.871,-0.09,1.59,0.41,0.00,0.11,0.03,
3.871,-0.09,1.59,0.41,0.02,0.08,0.06,
3.873,-0.09,1.59,0.41,0.05,0.06,0.09,
3.875,-0.02,0.91,0.07,0.05,0.06,0.09,
3.875,-0.02,0.91,0.07,0.05,0.04,0.08,
3.877,-0.02,0.91,0.07,0.06,0.03,0.07,
3.88,-0.28,-0.09,0.15,0.06,0.03,0.07,
3.881,-0.28,-0.09,0.15,0.06,-0.03,0.07,
3.883,-0.28,-0.09,0.15,0.05,-0.09,0.08,
3.887,-0.49,-0.01,-0.10,0.05,-0.09,0.08,
3.887,-0.49,-0.01,-0.10,0.05,-0.12,0.08,
3.887,-0.49,-0.01,-0.10,0.04,-0.13,0.09,
3.891,-0.41,-0.45,-0.26,0.04,-0.13,0.09,
3.891,-0.41,-0.45,-0.26,0.04,-0.15,0.11,
3.892,-0.41,-0.45,-0.26,0.03,-0.17,0.12,
3.896,-0.25,-0.63,-0.07,0.03,-0.17,0.12,
3.896,-0.25,-0.63,-0.07,0.03,-0.20,0.13,
3.898,-0.25,-0.63,-0.07,0.02,-0.20,0.13,
3.901,-0.24,-0.87,-0.35,0.02,-0.20,0.13,
3.901,-0.24,-0.87,-0.35,0.02,-0.19,0.13,
3.903,-0.24,-0.87,-0.35,0.02,-0.19,0.13,
3.905,0.05,-0.79,-0.14,0.02,-0.19,0.13,
3.905,0.05,-0.79,-0.14,0.02,-0.21,0.13,
3.907,0.05,-0.79,-0.14,0.02,-0.22,0.13,
3.911,0.27,-0.90,-0.02,0.02,-0.22,0.13,
3.911,0.27,-0.90,-0.02,0.02,-0.22,0.13,
3.914,0.27,-0.90,-0.02,0.03,-0.23,0.12,
3.916,0.53,-0.73,0.01,0.03,-0.23,0.12,
3.916,0.53,-0.73,0.01,0.04,-0.23,0.11,
3.918,0.53,-0.73,0.01,0.05,-0.23,0.09,
3.921,0.64,-0.92,-0.20,0.05,-0.23,0.09,
3.921,0.64,-0.92,-0.20,0.05,-0.21,0.07,
3.923,0.64,-0.92,-0.20,0.06,-0.19,0.05,
3.925,0.62,-0.80,-0.27,0.06,-0.19,0.05,
3.925,0.62,-0.80,-0.27,0.06,-0.17,0.04,
3.927,0.62,-0.80,-0.27,0.06,-0.16,0.03,
3.931,0.66,-0.79,-0.31,0.06,-0.16,0.03,
3.932,0.66,-0.79,-0.31,0.06,-0.13,0.03,
3.932,0.66,-0.79,-0.31,0.07,-0.12,0.03,
3.936,0.65,-0.64,-0.28,0.07,-0.12,0.03,
3.936,0.65,-0.64,-0.28,0.06,-0.10,0.03,
3.938,0.65,-0.64,-0.28,0.06,-0.08,0.02,
3.941,0.61,-0.80,-0.30,0.06,-0.08,0.02,
3.941,0.61,-0.80,-0.30,0.07,-0.06,0.01,
3.944,0.61,-0.80,-0.30,0.07,-0.05,0.01,
3.946,0.55,-0.51,-0.13,0.07,-0.05,0.01,
3.947,0.55,-0.51,-0.13,0.08,-0.04,0.01,
3.948,0.55,-0.51,-0.13,0.09,-0.04,0.01,
3.951,0.54,-0.28,-0.04,0.09,-0.04,0.01,
3.951,0.54,-0.28,-0.04,0.11,-0.04,0.01,
3.954,0.54,-0.28,-0.04,0.14,-0.04,0.03,
3.955,0.58,-0.23,0.02,0.14,-0.04,0.03,
3.955,0.58,-0.23,0.02,0.16,-0.05,0.03,
3.958,0.58,-0.23,0.02,0.18,-0.05,0.02,
3.96,0.60,-0.83,-0.21,0.18,-0.05,0.02,
3.96,0.60,-0.83,-0.21,0.19,-0.05,0.00,
3.964,0.60,-0.83,-0.21,0.19,-0.05,-0.00,
3.965,0.32,-0.62,-0.12,0.19,-0.05,-0.00,
3.966,0.32,-0.62,-0.12,0.19,-0.08,-0.00,
3.967,0.32,-0.62,-0.12,0.19,-0.10,-0.00,
3.971,0.15,-0.70,-0.09,0.19,-0.10,-0.00,
3.972,0.15,-0.70,-0.09,0.19,-0.11,-0.00,
3.974,0.15,-0.70,-0.09,0.19,-0.12,0.00,
3.976,0.18,-0.80,0.04,0.19,-0.12,0.00,
3.977,0.18,-0.80,0.04,0.19,-0.13,0.00,
3.979,0.18,-0.80,0.04,0.19,-0.19,-0.00,
3.98,0.18,-0.85,0.30,0.19,-0.19,-0.00,
3.981,0.18,-0.85,0.30,0.18,-0.21,-0.00,
3.982,0.18,-0.85,0.30,0.18,-0.20,0.00,
3.986,-0.06,-0.95,-0.48,0.18,-0.20,0.00,
3.987,-0.06,-0.95,-0.48,0.16,-0.18,0.00,
3.989,-0.06,-0.95,-0.48,0.15,-0.17,0.00,
3.991,0.01,-0.77,-0.13,0.15,-0.17,0.00,
3.992,0.01,-0.77,-0.13,0.15,-0.18,0.01,
3.993,0.01,-0.77,-0.13,0.15,-0.21,0.02,
3.996,0.14,-0.80,0.49,0.15,-0.21,0.02,
3.996,0.14,-0.80,0.49,0.15,-0.26,0.02,
3.997,0.14,-0.80,0.49,0.16,-0.28,0.03,
4.002,0.20,-0.96,0.54,0.16,-0.28,0.03,
4.002,0.20,-0.96,0.54,0.16,-0.31,0.04,
4.003,0.20,-0.96,0.54,0.17,-0.33,0.04,
4.006,0.16,-1.03,0.08,0.17,-0.33,0.04,
4.006,0.16,-1.03,0.08,0.18,-0.32,0.05,
4.007,0.16,-1.03,0.08,0.18,-0.33,0.05,
4.011,0.38,-1.06,0.20,0.18,-0.33,0.05,
4.011,0.38,-1.06,0.20,0.19,-0.34,0.05,
4.013,0.38,-1.06,0.20,0.19,-0.33,0.05,
4.016,0.50,-1.16,-0.01,0.19,-0.33,0.05,
4.017,0.50,-1.16,-0.01,0.18,-0.32,0.04,
4.018,0.50,-1.16,-0.01,0.18,-0.33,0.03,
4.022,0.42,-1.12,-0.14,0.18,-0.33,0.03,
4.022,0.42,-1.12,-0.14,0.17,-0.30,0.02,
4.024,0.42,-1.12,-0.14,0.17,-0.28,0.01,
4.026,0.41,-0.95,0.08,0.17,-0.28,0.01,
4.027,0.41,-0.95,0.08,0.17,-0.27,0.00,
4.027,0.41,-0.95,0.08,0.18,-0.24,0.00,
4.032,0.41,-0.68,0.27,0.18,-0.24,0.00,
4.033,0.41,-0.68,0.27,0.19,-0.23,-0.00,
4.033,0.41,-0.68,0.27,0.21,-0.23,-0.00,
4.037,0.35,-0.74,0.55,0.21,-0.23,-0.00,
4.038,0.35,-0.74,0.55,0.23,-0.23,-0.01,
4.043,0.35,-0.74,0.55,0.25,-0.25,-0.02,
4.043,0.38,-1.02,0.70,0.25,-0.25,-0.02,
4.044,0.38,-1.02,0.70,0.27,-0.26,-0.03,
4.044,0.38,-1.02,0.70,0.28,-0.27,-0.04,
4.047,0.22,-1.31,0.38,0.28,-0.27,-0.04,
4.047,0.22,-1.31,0.38,0.29,-0.28,-0.05,
4.049,0.22,-1.31,0.38,0.29,-0.28,-0.05,
4.051,0.09,-1.50,0.16,0.29,-0.28,-0.05,
4.052,0.09,-1.50,0.16,0.29,-0.28,-0.04,
4.053,0.09,-1.50,0.16,0.28,-0.29,-0.03,
4.055,0.07,-1.47,0.22,0.28,-0.29,-0.03,
4.056,0.07,-1.47,0.22,0.27,-0.31,-0.02,
4.058,0.07,-1.47,0.22,0.25,-0.34,-0.02,
4.06,0.12,-1.34,0.23,0.25,-0.34,-0.02,
4.061,0.12,-1.34,0.23,0.22,-0.37,-0.01,
4.064,0.12,-1.34,0.23,0.19,-0.40,-0.01,
4.066,0.21,-1.20,0.20,0.19,-0.40,-0.01,
4.066,0.21,-1.20,0.20,0.15,-0.45,-0.01,
4.07,0.21,-1.20,0.20,0.09,-0.50,-0.01,
4.071,0.13,-0.85,0.00,0.09,-0.50,-0.01,
4.072,0.13,-0.85,0.00,0.03,-0.55,-0.01,
4.074,0.13,-0.85,0.00,-0.04,-0.59,-0.01,
4.076,0.17,-0.15,-0.22,-0.04,-0.59,-0.01,
4.076,0.17,-0.15,-0.22,-0.12,-0.63,-0.00,
4.079,0.17,-0.15,-0.22,-0.19,-0.66,0.01,
4.081,0.39,0.88,-0.10,-0.19,-0.66,0.01,
4.081,0.39,0.88,-0.10,-0.25,-0.70,0.03,
4.086,0.39,0.88,-0.10,-0.29,-0.72,0.05,
4.087,0.40,2.37,0.44,-0.29,-0.72,0.05,
4.087,0.40,2.37,0.44,-0.30,-0.75,0.11,
4.089,0.40,2.37,0.44,-0.24,-0.78,0.26,
4.091,-0.94,5.20,0.85,-0.24,-0.78,0.26,
4.091,-0.94,5.20,0.85,-0.15,-0.77,0.47,
4.094,-0.94,5.20,0.85,-0.09,-0.71,0.66,
4.096,-0.72,4.92,-0.96,-0.09,-0.71,0.66,
4.096,-0.72,4.92,-0.96,-0.06,-0.62,0.83,
4.098,-0.72,4.92,-0.96,-0.03,-0.53,0.97,
4.1,-0.15,3.83,-1.48,-0.03,-0.53,0.97,
4.101,-0.15,3.83,-1.48,-0.01,-0.43,1.06,
4.104,-0.15,3.83,-1.48,0.01,-0.35,1.12,
4.107,0.37,2.87,-1.25,0.01,-0.35,1.12,
4.107,0.37,2.87,-1.25,0.04,-0.28,1.14,
4.108,0.37,2.87,-1.25,0.05,-0.23,1.14,
4.111,0.64,2.14,-0.75,0.05,-0.23,1.14,
4.111,0.64,2.14,-0.75,0.06,-0.19,1.09,
4.113,0.64,2.14,-0.75,0.08,-0.17,1.02,
4.117,0.62,1.41,-0.41,0.08,-0.17,1.02,
4.117,0.62,1.41,-0.41,0.10,-0.15,0.93,
4.118,0.62,1.41,-0.41,0.12,-0.13,0.82,
4.121,0.18,0.95,-0.49,0.12,-0.13,0.82,
4.121,0.18,0.95,-0.49,0.14,-0.11,0.70,
4.123,0.18,0.95,-0.49,0.15,-0.09,0.59,
4.126,-0.53,1.06,-0.63,0.15,-0.09,0.59,
4.126,-0.53,1.06,-0.63,0.15,-0.07,0.48,
4.128,-0.53,1.06,-0.63,0.16,-0.05,0.37,
4.131,-1.09,1.14,-0.77,0.16,-0.05,0.37,
4.132,-1.09,1.14,-0.77,0.15,-0.01,0.25,
4.133,-1.09,1.14,-0.77,0.15,0.01,0.14,
4.136,-1.76,0.89,-0.25,0.15,0.01,0.14,
4.136,-1.76,0.89,-0.25,0.14,-0.03,0.05,
4.139,-1.76,0.89,-0.25,0.13,-0.13,-0.02,
4.142,-2.60,0.54,0.81,0.13,-0.13,-0.02,
4.142,-2.60,0.54,0.81,0.13,-0.24,-0.05,
4.143,-2.60,0.54,0.81,0.13,-0.35,-0.07,
4.146,-2.61,0.27,0.94,0.13,-0.35,-0.07,
4.147,-2.61,0.27,0.94,0.13,-0.46,-0.08,
4.148,-2.61,0.27,0.94,0.13,-0.56,-0.09,
4.152,-2.08,0.03,0.62,0.13,-0.56,-0.09,
4.152,-2.08,0.03,0.62,0.12,-0.63,-0.09,
4.153,-2.08,0.03,0.62,0.11,-0.67,-0.10,
4.156,-1.42,0.04,-0.05,0.11,-0.67,-0.10,
4.157,-1.42,0.04,-0.05,0.10,-0.69,-0.10,
4.159,-1.42,0.04,-0.05,0.09,-0.69,-0.08,
4.162,-0.42,0.56,0.00,0.09,-0.69,-0.08,
4.162,-0.42,0.56,0.00,0.08,-0.72,-0.01,
4.165,-0.42,0.56,0.00,0.09,-0.76,0.08,
4.166,1.01,0.82,-0.30,0.09,-0.76,0.08,
4.17,1.01,0.82,-0.30,0.09,-0.73,0.16,
4.171,1.01,0.82,-0.30,0.08,-0.67,0.22,
4.172,2.02,0.32,-1.61,0.08,-0.67,0.22,
4.173,2.02,0.32,-1.61,0.06,-0.54,0.26,
4.173,2.02,0.32,-1.61,0.05,-0.44,0.29,
4.177,2.67,-0.18,-1.70,0.05,-0.44,0.29,
4.177,2.67,-0.18,-1.70,0.03,-0.31,0.30,
4.179,2.67,-0.18,-1.70,0.02,-0.19,0.30,
4.182,2.63,-0.52,-1.43,0.02,-0.19,0.30,
4.183,2.63,-0.52,-1.43,0.02,-0.08,0.29,
4.183,2.63,-0.52,-1.43,0.01,0.02,0.27,
4.186,2.00,-0.65,-0.99,0.01,0.02,0.27,
4.187,2.00,-0.65,-0.99,0.00,0.10,0.25,
4.188,2.00,-0.65,-0.99,0.00,0.19,0.21,
4.192,1.26,-0.74,-0.51,0.00,0.19,0.21,
4.192,1.26,-0.74,-0.51,-0.00,0.23,0.18,
4.194,1.26,-0.74,-0.51,-0.01,0.28,0.13,
4.197,0.18,-0.72,-0.29,-0.01,0.28,0.13,
4.197,0.18,-0.72,-0.29,-0.03,0.32,0.09,
4.198,0.18,-0.72,-0.29,-0.04,0.33,0.06,
4.202,-0.57,-0.59,0.29,-0.04,0.33,0.06,
4.202,-0.57,-0.59,0.29,-0.06,0.31,0.02,
4.203,-0.57,-0.59,0.29,-0.08,0.28,-0.01,
4.205,-1.12,-0.28,0.60,-0.08,0.28,-0.01,
4.206,-1.12,-0.28,0.60,-0.11,0.24,-0.03,
4.208,-1.12,-0.28,0.60,-0.13,0.20,-0.06,
4.211,-1.39,-0.02,0.89,-0.13,0.20,-0.06,
4.212,-1.39,-0.02,0.89,-0.15,0.14,-0.07,
4.213,-1.39,-0.02,0.89,-0.16,0.09,-0.08,
4.217,-1.33,0.30,0.83,-0.16,0.09,-0.08,
4.217,-1.33,0.30,0.83,-0.18,0.04,-0.07,
4.219,-1.33,0.30,0.83,-0.18,0.00,-0.08,
4.221,-1.02,0.42,0.61,-0.18,0.00,-0.08,
4.222,-1.02,0.42,0.61,-0.18,-0.04,-0.06,
4.224,-1.02,0.42,0.61,-0.18,-0.07,-0.06,
4.227,-0.72,0.35,0.28,-0.18,-0.07,-0.06,
4.227,-0.72,0.35,0.28,-0.18,-0.09,-0.05,
4.229,-0.72,0.35,0.28,-0.17,-0.10,-0.04,
4.233,-0.39,0.23,-0.21,-0.17,-0.10,-0.04,
4.234,-0.39,0.23,-0.21,-0.17,-0.09,-0.04,
4.234,-0.39,0.23,-0.21,-0.16,-0.09,-0.03,
4.237,-0.19,0.08,-0.23,-0.16,-0.09,-0.03,
4.238,-0.19,0.08,-0.23,-0.15,-0.08,-0.04,
4.239,-0.19,0.08,-0.23,-0.14,-0.07,-0.05,
4.241,-0.13,0.08,-0.10,-0.14,-0.07,-0.05,
4.242,-0.13,0.08,-0.10,-0.12,-0.09,-0.05,
4.243,-0.13,0.08,-0.10,-0.10,-0.09,-0.06,
4.246,-0.12,0.03,-0.42,-0.10,-0.09,-0.06,
4.247,-0.12,0.03,-0.42,-0.09,-0.06,-0.07,
4.249,-0.12,0.03,-0.42,-0.09,-0.01,-0.08,
4.252,0.16,0.24,-0.78,-0.09,-0.01,-0.08,
4.252,0.16,0.24,-0.78,-0.10,0.04,-0.09,
4.254,0.16,0.24,-0.78,-0.10,0.08,-0.10,
4.257,0.23,0.38,-0.40,-0.10,0.08,-0.10,
4.257,0.23,0.38,-0.40,-0.09,0.10,-0.10,
4.259,0.23,0.38,-0.40,-0.09,0.12,-0.10,
4.261,0.06,0.27,-0.25,-0.09,0.12,-0.10,
4.261,0.06,0.27,-0.25,-0.09,0.14,-0.09,
4.264,0.06,0.27,-0.25,-0.09,0.16,-0.09,
4.267,-0.02,0.13,-0.21,-0.09,0.16,-0.09,
4.268,-0.02,0.13,-0.21,-0.09,0.18,-0.08,
4.268,-0.02,0.13,-0.21,-0.09,0.20,-0.06,
4.271,0.01,-0.05,-0.21,-0.09,0.20,-0.06,
4.272,0.01,-0.05,-0.21,-0.09,0.22,-0.05,
4.274,0.01,-0.05,-0.21,-0.10,0.24,-0.05,
4.277,0.10,-0.17,-0.02,-0.10,0.24,-0.05,
4.277,0.10,-0.17,-0.02,-0.10,0.24,-0.04,
4.278,0.10,-0.17,-0.02,-0.10,0.24,-0.04,
4.281,0.36,0.07,0.19,-0.10,0.24,-0.04,
4.282,0.36,0.07,0.19,-0.10,0.23,-0.03,
4.286,0.36,0.07,0.19,-0.10,0.21,-0.03,
4.286,0.34,0.30,0.15,-0.10,0.21,-0.03,
4.287,0.34,0.30,0.15,-0.09,0.19,-0.02,
4.289,0.34,0.30,0.15,-0.09,0.20,-0.02,
4.292,-0.21,0.05,-0.24,-0.09,0.20,-0.02,
4.292,-0.21,0.05,-0.24,-0.08,0.21,-0.01,
4.293,-0.21,0.05,-0.24,-0.08,0.21,-0.00,
4.296,-0.39,-0.26,-0.20,-0.08,0.21,-0.00,
4.297,-0.39,-0.26,-0.20,-0.08,0.21,-0.00,
4.299,-0.39,-0.26,-0.20,-0.07,0.20,-0.01,
4.302,-0.20,-0.36,0.07,-0.07,0.20,-0.01,
4.302,-0.20,-0.36,0.07,-0.07,0.18,-0.01,
4.305,-0.20,-0.36,0.07,-0.06,0.15,-0.01,
4.307,-0.16,-0.38,0.31,-0.06,0.15,-0.01,
4.307,-0.16,-0.38,0.31,-0.05,0.12,-0.02,
4.308,-0.16,-0.38,0.31,-0.04,0.09,-0.03,
4.312,-0.06,-0.29,0.28,-0.04,0.09,-0.03,
4.312,-0.06,-0.29,0.28,-0.03,0.06,-0.04,
4.313,-0.06,-0.29,0.28,-0.03,0.03,-0.05,
4.316,-0.05,-0.19,0.17,-0.03,0.03,-0.05,
4.316,-0.05,-0.19,0.17,-0.03,0.01,-0.06,
4.319,-0.05,-0.19,0.17,-0.02,-0.02,-0.06,
4.321,0.15,-0.06,0.02,-0.02,-0.02,-0.06,
4.322,0.15,-0.06,0.02,-0.02,-0.04,-0.07,
4.324,0.15,-0.06,0.02,-0.03,-0.06,-0.07,
4.326,0.30,0.05,-0.00,-0.03,-0.06,-0.07,
4.326,0.30,0.05,-0.00,-0.03,-0.10,-0.07,
4.328,0.30,0.05,-0.00,-0.03,-0.12,-0.07,
4.332,0.28,0.08,-0.16,-0.03,-0.12,-0.07,
4.333,0.28,0.08,-0.16,-0.03,-0.14,-0.07,
4.335,0.28,0.08,-0.16,-0.03,-0.15,-0.07,
4.338,0.18,0.12,-0.17,-0.03,-0.15,-0.07,
4.338,0.18,0.12,-0.17,-0.03,-0.17,-0.06,
4.339,0.18,0.12,-0.17,-0.02,-0.18,-0.06,
4.342,0.05,0.04,-0.09,-0.02,-0.18,-0.06,
4.342,0.05,0.04,-0.09,-0.01,-0.20,-0.06,
4.344,0.05,0.04,-0.09,-0.00,-0.21,-0.06,
4.347,-0.04,-0.04,-0.05,-0.00,-0.21,-0.06,
4.348,-0.04,-0.04,-0.05,0.01,-0.23,-0.07,
4.352,-0.04,-0.04,-0.05,0.02,-0.24,-0.06,
4.353,-0.21,-0.18,0.14,0.02,-0.24,-0.06,
4.353,-0.21,-0.18,0.14,0.03,-0.27,-0.06,
4.353,-0.21,-0.18,0.14,0.05,-0.32,-0.06,
4.357,-0.41,-0.44,0.36,0.05,-0.32,-0.06,
4.357,-0.41,-0.44,0.36,0.07,-0.37,-0.06,
4.358,-0.41,-0.44,0.36,0.08,-0.40,-0.06,
4.361,-0.22,-0.37,-0.12,0.08,-0.40,-0.06,
4.361,-0.22,-0.37,-0.12,0.09,-0.40,-0.06,
4.365,-0.22,-0.37,-0.12,0.10,-0.39,-0.06,
4.367,0.11,-0.18,-0.44,0.10,-0.39,-0.06,
4.368,0.11,-0.18,-0.44,0.10,-0.37,-0.07,
4.371,0.11,-0.18,-0.44,0.10,-0.35,-0.07,
4.371,0.31,-0.01,-0.48,0.10,-0.35,-0.07,
4.372,0.31,-0.01,-0.48,0.09,-0.32,-0.08,
4.375,0.31,-0.01,-0.48,0.08,-0.29,-0.08,
4.376,0.28,0.31,-0.60,0.08,-0.29,-0.08,
4.376,0.28,0.31,-0.60,0.07,-0.25,-0.08,
4.378,0.28,0.31,-0.60,0.06,-0.20,-0.07,
4.382,0.35,0.51,-0.46,0.06,-0.20,-0.07,
4.382,0.35,0.51,-0.46,0.05,-0.16,-0.06,
4.384,0.35,0.51,-0.46,0.04,-0.11,-0.05,
4.387,0.51,0.46,-0.30,0.04,-0.11,-0.05,
4.387,0.51,0.46,-0.30,0.04,-0.08,-0.04,
4.389,0.51,0.46,-0.30,0.03,-0.04,-0.02,
4.392,0.50,0.40,-0.24,0.03,-0.04,-0.02,
4.392,0.50,0.40,-0.24,0.02,-0.01,-0.01,
4.394,0.50,0.40,-0.24,0.01,0.02,0.00,
4.396,0.43,0.28,-0.16,0.01,0.02,0.00,
4.397,0.43,0.28,-0.16,0.01,0.04,0.01,
4.398,0.43,0.28,-0.16,0.00,0.06,0.01,
4.402,0.35,0.17,-0.05,0.00,0.06,0.01,
4.402,0.35,0.17,-0.05,-0.00,0.08,0.02,
4.404,0.35,0.17,-0.05,-0.00,0.09,0.03,
4.406,0.26,0.16,0.01,-0.00,0.09,0.03,
4.406,0.26,0.16,0.01,-0.01,0.10,0.03,
4.409,0.26,0.16,0.01,-0.02,0.10,0.03,
4.412,0.18,0.13,0.07,-0.02,0.10,0.03,
4.412,0.18,0.13,0.07,-0.02,0.10,0.03,
4.414,0.18,0.13,0.07,-0.02,0.10,0.04,
4.417,0.15,0.11,0.08,-0.02,0.10,0.04,
4.417,0.15,0.11,0.08,-0.02,0.10,0.03,
4.419,0.15,0.11,0.08,-0.02,0.09,0.04,
4.422,0.12,0.11,0.09,-0.02,0.09,0.04,
4.423,0.12,0.11,0.09,-0.02,0.09,0.04,
4.425,0.12,0.11,0.09,-0.01,0.08,0.03,
4.427,0.10,0.06,0.05,-0.01,0.08,0.03,
4.427,0.10,0.06,0.05,-0.01,0.07,0.03,
4.432,0.10,0.06,0.05,-0.01,0.06,0.03,
4.433,0.07,0.04,0.02,-0.01,0.06,0.03,
4.433,0.07,0.04,0.02,-0.01,0.05,0.03,
4.435,0.07,0.04,0.02,-0.00,0.05,0.02,
4.438,0.08,0.00,-0.00,-0.00,0.05,0.02,
4.438,0.08,0.00,-0.00,-0.00,0.04,0.02,
4.439,0.08,0.00,-0.00,0.00,0.02,0.02,
4.443,0.08,0.00,-0.00,0.00,0.02,0.01,
4.443,0.12,-0.03,-0.06,0.00,0.02,0.01,
4.445,0.12,-0.03,-0.06,0.01,0.01,0.01,
4.446,0.14,0.03,-0.11,0.01,0.01,0.01,
4.447,0.14,0.03,-0.11,0.01,-0.00,0.01,
4.449,0.14,0.03,-0.11,0.01,-0.02,0.02,
4.452,0.31,0.25,-0.17,0.01,-0.02,0.02,
4.452,0.31,0.25,-0.17,0.01,-0.02,0.03,
4.454,0.31,0.25,-0.17,0.01,-0.02,0.05,
4.457,0.50,0.28,-0.30,0.01,-0.02,0.05,
4.457,0.50,0.28,-0.30,0.01,-0.02,0.05,
4.459,0.50,0.28,-0.30,0.00,-0.02,0.05,
4.463,0.56,0.13,-0.31,0.00,-0.02,0.05,
4.463,0.56,0.13,-0.31,-0.00,-0.03,0.05,
4.465,0.56,0.13,-0.31,-0.01,-0.03,0.05,
4.468,0.47,0.01,-0.14,-0.01,-0.03,0.05,
4.468,0.47,0.01,-0.14,-0.01,-0.04,0.05,
4.472,0.47,0.01,-0.14,-0.01,-0.04,0.06,
4.473,0.44,-0.02,-0.06,-0.01,-0.04,0.06,
4.473,0.44,-0.02,-0.06,-0.01,-0.05,0.05,
4.474,0.44,-0.02,-0.06,-0.01,-0.05,0.06,
4.478,0.45,-0.09,-0.06,-0.01,-0.05,0.06,
4.478,0.45,-0.09,-0.06,-0.01,-0.06,0.06,
4.479,0.45,-0.09,-0.06,-0.01,-0.06,0.05,
4.483,0.45,-0.40,-0.27,-0.01,-0.06,0.05,
4.483,0.45,-0.40,-0.27,-0.01,-0.04,0.01,
4.487,0.45,-0.40,-0.27,-0.01,-0.02,-0.03,
4.488,0.05,-1.03,-0.28,-0.01,-0.02,-0.03,
4.488,0.05,-1.03,-0.28,-0.01,0.00,-0.08,
4.489,0.05,-1.03,-0.28,-0.00,0.01,-0.14,
4.492,-0.68,-1.09,0.24,-0.00,0.01,-0.14,
4.492,-0.68,-1.09,0.24,0.01,-0.01,-0.17,
4.495,-0.68,-1.09,0.24,0.03,-0.06,-0.15,
4.498,-0.97,0.16,0.72,0.03,-0.06,-0.15,
4.498,-0.97,0.16,0.72,0.05,-0.10,-0.11,
4.5,-0.97,0.16,0.72,0.07,-0.10,-0.07,
4.504,0.06,0.83,-0.59,0.07,-0.10,-0.07,
4.505,0.06,0.83,-0.59,0.07,-0.07,-0.05,
4.505,0.06,0.83,-0.59,0.06,-0.03,-0.06,
4.506,0.49,0.37,-0.77,0.06,-0.03,-0.06,
4.507,0.49,0.37,-0.77,0.05,-0.02,-0.05,
4.509,0.49,0.37,-0.77,0.03,-0.03,-0.03,
4.513,0.16,0.44,-0.24,0.03,-0.03,-0.03,
4.513,0.16,0.44,-0.24,0.01,-0.04,-0.01,
4.518,0.16,0.44,-0.24,0.00,-0.05,0.01,
4.519,0.13,0.27,-0.07,0.00,-0.05,0.01,
4.519,0.13,0.27,-0.07,-0.00,-0.05,0.01,
4.52,0.13,0.27,-0.07,-0.01,-0.05,0.01,
4.523,0.08,-0.03,-0.05,-0.01,-0.05,0.01,
4.524,0.08,-0.03,-0.05,-0.01,-0.04,0.01,
4.524,0.08,-0.03,-0.05,-0.01,-0.04,0.01,
4.527,0.03,-0.19,-0.06,-0.01,-0.04,0.01,
4.528,0.03,-0.19,-0.06,-0.01,-0.03,0.01,
4.529,0.03,-0.19,-0.06,-0.00,-0.01,0.00,
4.533,0.03,-0.15,-0.03,-0.00,-0.01,0.00,
4.534,0.03,-0.15,-0.03,0.00,0.00,0.00,
4.536,0.03,-0.15,-0.03,0.00,0.01,0.01,
4.538,0.04,-0.01,0.01,0.00,0.01,0.01,
4.538,0.04,-0.01,0.01,0.00,0.02,0.01,
4.539,0.04,-0.01,0.01,0.01,0.02,0.01,
4.542,0.04,-0.06,-0.00,0.01,0.02,0.01,
4.543,0.04,-0.06,-0.00,0.01,0.03,0.01,
4.545,0.04,-0.06,-0.00,0.00,0.03,0.01,
4.548,-0.04,0.08,-0.05,0.00,0.03,0.01,
4.549,-0.04,0.08,-0.05,0.00,0.03,0.02,
4.549,-0.04,0.08,-0.05,-0.00,0.03,0.02,
4.553,-0.05,0.03,0.02,-0.00,0.03,0.02,
4.553,-0.05,0.03,0.02,-0.00,0.03,0.02,
4.555,-0.05,0.03,0.02,-0.00,0.02,0.02,
4.557,-0.11,0.00,0.02,-0.00,0.02,0.02,
4.557,-0.11,0.00,0.02,-0.00,0.01,0.02,
4.559,-0.11,0.00,0.02,-0.00,0.01,0.02,
4.562,-0.15,0.02,-0.05,-0.00,0.01,0.02,
4.562,-0.15,0.02,-0.05,-0.00,0.00,0.02,
4.565,-0.15,0.02,-0.05,-0.00,-0.00,0.02,
4.567,-0.20,0.02,-0.10,-0.00,-0.00,0.02,
4.567,-0.20,0.02,-0.10,-0.00,-0.01,0.03,
4.57,-0.20,0.02,-0.10,0.00,-0.01,0.03,
4.572,-0.16,0.01,-0.11,0.00,-0.01,0.03,
4.572,-0.16,0.01,-0.11,0.00,-0.02,0.03,
4.575,-0.16,0.01,-0.11,0.00,-0.02,0.03,
4.578,-0.16,-0.07,-0.12,0.00,-0.02,0.03,
4.578,-0.16,-0.07,-0.12,0.01,-0.02,0.03,
4.579,-0.16,-0.07,-0.12,0.01,-0.02,0.02,
4.582,-0.15,-0.08,-0.20,0.01,-0.02,0.02,
4.583,-0.15,-0.08,-0.20,0.01,-0.02,0.02,
4.585,-0.15,-0.08,-0.20,0.01,-0.02,0.02,
4.587,-0.12,0.08,-0.19,0.01,-0.02,0.02,
4.587,-0.12,0.08,-0.19,0.01,-0.02,0.03,
4.589,-0.12,0.08,-0.19,0.01,-0.01,0.03,
4.592,-0.09,0.08,-0.25,0.01,-0.01,0.03,
4.593,-0.09,0.08,-0.25,0.01,-0.00,0.03,
4.595,-0.09,0.08,-0.25,0.01,-0.00,0.04,
4.598,-0.03,-0.00,-0.14,0.01,-0.00,0.04,
4.598,-0.03,-0.00,-0.14,0.01,-0.00,0.04,
4.599,-0.03,-0.00,-0.14,0.01,-0.00,0.04,
4.603,-0.06,-0.07,-0.14,0.01,-0.00,0.04,
4.603,-0.06,-0.07,-0.14,0.01,-0.00,0.04,
4.606,-0.06,-0.07,-0.14,0.01,0.00,0.04,
4.608,-0.04,-0.05,-0.05,0.01,0.00,0.04,
4.609,-0.04,-0.05,-0.05,0.01,-0.01,0.04,
4.61,-0.04,-0.05,-0.05,0.01,-0.01,0.04,
4.616,-0.11,-0.16,0.02,0.01,-0.01,0.04,
4.617,-0.11,-0.16,0.02,0.01,-0.01,0.03,
4.617,-0.11,-0.16,0.02,0.01,-0.01,0.04,
4.618,-0.16,-0.07,-0.07,0.01,-0.01,0.04,
4.618,-0.16,-0.07,-0.07,0.01,-0.01,0.04,
4.621,-0.16,-0.07,-0.07,0.01,-0.01,0.04,
4.623,-0.15,0.11,-0.04,0.01,-0.01,0.04,
4.623,-0.15,0.11,-0.04,0.01,-0.02,0.05,
4.625,-0.15,0.11,-0.04,0.01,-0.02,0.05,
4.628,-0.08,0.16,-0.07,0.01,-0.02,0.05,
4.628,-0.08,0.16,-0.07,0.00,-0.01,0.06,
4.629,-0.08,0.16,-0.07,0.00,-0.01,0.07,
4.632,-0.03,0.04,-0.09,0.00,-0.01,0.07,
4.632,-0.03,0.04,-0.09,0.00,-0.00,0.06,
4.634,-0.03,0.04,-0.09,0.00,0.00,0.06,
4.638,-0.02,-0.02,-0.06,0.00,0.00,0.06,
4.639,-0.02,-0.02,-0.06,0.00,0.01,0.06,
4.64,-0.02,-0.02,-0.06,0.00,0.01,0.07,
4.643,-0.02,-0.14,0.07,0.00,0.01,0.07,
4.643,-0.02,-0.14,0.07,0.01,0.01,0.06,
4.644,-0.02,-0.14,0.07,0.01,0.01,0.06,
4.647,-0.08,0.00,-0.10,0.01,0.01,0.06,
4.647,-0.08,0.00,-0.10,0.01,0.02,0.07,
4.65,-0.08,0.00,-0.10,0.01,0.03,0.07,
4.654,0.00,0.14,-0.04,0.01,0.03,0.07,
4.654,0.00,0.14,-0.04,0.01,0.03,0.08,
4.654,0.00,0.14,-0.04,0.01,0.03,0.08,
4.658,0.06,0.09,-0.02,0.01,0.03,0.08,
4.658,0.06,0.09,-0.02,0.01,0.03,0.08,
4.661,0.06,0.09,-0.02,0.00,0.04,0.08,
4.662,0.03,0.01,-0.14,0.00,0.04,0.08,
4.663,0.03,0.01,-0.14,0.01,0.05,0.08,
4.666,0.03,0.01,-0.14,0.00,0.05,0.08,
4.667,0.05,-0.13,0.10,0.00,0.05,0.08,
4.67,0.05,-0.13,0.10,0.01,0.04,0.08,
4.67,0.05,-0.13,0.10,0.01,0.04,0.07,
4.674,-0.07,0.05,-0.07,0.01,0.04,0.07,
4.674,-0.07,0.05,-0.07,0.01,0.04,0.08,
4.675,-0.07,0.05,-0.07,0.01,0.05,0.09,
4.677,-0.02,0.20,-0.03,0.01,0.05,0.09,
4.677,-0.02,0.20,-0.03,0.00,0.04,0.09,
4.68,-0.02,0.20,-0.03,-0.00,0.03,0.09,
4.683,0.02,0.08,0.03,-0.00,0.03,0.09,
4.684,0.02,0.08,0.03,-0.00,0.03,0.09,
4.685,0.02,0.08,0.03,-0.00,0.03,0.09,
4.688,-0.08,0.01,-0.08,-0.00,0.03,0.09,
4.689,-0.08,0.01,-0.08,0.00,0.04,0.08,
4.689,-0.08,0.01,-0.08,0.01,0.04,0.08,
4.693,-0.08,-0.05,-0.03,0.01,0.04,0.08,
4.693,-0.08,-0.05,-0.03,0.01,0.03,0.08,
4.695,-0.08,-0.05,-0.03,0.01,0.02,0.08,
4.697,-0.00,-0.02,0.13,0.01,0.02,0.08,
4.698,-0.00,-0.02,0.13,0.01,0.01,0.08,
4.7,-0.00,-0.02,0.13,0.01,0.01,0.08,
4.702,-0.06,0.15,-0.02,0.01,0.01,0.08,
4.703,-0.06,0.15,-0.02,0.02,0.01,0.08,
4.705,-0.06,0.15,-0.02,0.01,0.02,0.09,
4.707,-0.00,0.28,-0.05,0.01,0.02,0.09,
4.708,-0.00,0.28,-0.05,0.01,0.02,0.09,
4.71,-0.00,0.28,-0.05,0.01,0.01,0.10,
4.715,-0.07,0.31,-0.14,0.01,0.01,0.10,
4.716,-0.07,0.31,-0.14,0.01,0.02,0.11,
4.716,-0.07,0.31,-0.14,0.01,0.03,0.11,
4.719,0.14,0.02,-0.03,0.01,0.03,0.11,
4.719,0.14,0.02,-0.03,0.01,0.02,0.10,
4.719,0.14,0.02,-0.03,0.01,0.02,0.10,
4.722,0.21,-0.24,0.04,0.01,0.02,0.10,
4.723,0.21,-0.24,0.04,0.01,0.02,0.09,
4.725,0.21,-0.24,0.04,0.01,0.02,0.08,
4.728,0.02,-0.31,-0.06,0.01,0.02,0.08,
4.728,0.02,-0.31,-0.06,0.02,0.03,0.07,
4.73,0.02,-0.31,-0.06,0.03,0.05,0.07,
4.732,-0.21,0.16,-0.20,0.03,0.05,0.07,
4.733,-0.21,0.16,-0.20,0.03,0.06,0.08,
4.736,-0.21,0.16,-0.20,0.02,0.04,0.08,
4.737,0.20,-0.08,0.17,0.02,0.04,0.08,
4.738,0.20,-0.08,0.17,0.03,0.03,0.08,
4.74,0.20,-0.08,0.17,0.03,0.03,0.08,
4.743,0.13,0.01,-0.07,0.03,0.03,0.08,
4.743,0.13,0.01,-0.07,0.02,0.03,0.08,
4.746,0.13,0.01,-0.07,0.02,0.05,0.09,
4.748,-0.12,0.37,-0.40,0.02,0.05,0.09,
4.749,-0.12,0.37,-0.40,0.01,0.07,0.10,
4.75,-0.12,0.37,-0.40,0.01,0.08,0.11,
4.754,0.14,0.12,-0.04,0.01,0.08,0.11,
4.754,0.14,0.12,-0.04,0.00,0.06,0.10,
4.755,0.14,0.12,-0.04,0.00,0.04,0.10,
4.757,0.24,-0.26,0.16,0.00,0.04,0.10,
4.758,0.24,-0.26,0.16,0.00,0.03,0.10,
4.76,0.24,-0.26,0.16,0.00,0.03,0.09,
4.763,0.20,-0.43,0.05,0.00,0.03,0.09,
4.764,0.20,-0.43,0.05,0.01,0.03,0.08,
4.765,0.20,-0.43,0.05,0.02,0.04,0.07,
4.771,-0.33,0.06,-0.41,0.02,0.04,0.07,
4.771,-0.33,0.06,-0.41,0.02,0.07,0.08,
4.771,-0.33,0.06,-0.41,0.01,0.06,0.08,
4.772,0.21,-0.01,0.20,0.01,0.06,0.08,
4.772,0.21,-0.01,0.20,0.01,0.03,0.08,
4.775,0.21,-0.01,0.20,0.01,0.01,0.07,
4.777,0.33,-0.24,0.14,0.01,0.01,0.07,
4.778,0.33,-0.24,0.14,0.01,0.01,0.07,
4.78,0.33,-0.24,0.14,0.02,0.01,0.07,
4.783,0.08,0.00,-0.21,0.02,0.01,0.07,
4.784,0.08,0.00,-0.21,0.02,0.03,0.07,
4.786,0.08,0.00,-0.21,0.01,0.06,0.08,
4.789,-0.05,0.45,-0.35,0.01,0.06,0.08,
4.789,-0.05,0.45,-0.35,0.01,0.06,0.09,
4.789,-0.05,0.45,-0.35,0.00,0.03,0.09,
4.793,0.42,-0.03,0.21,0.00,0.03,0.09,
4.794,0.42,-0.03,0.21,-0.00,0.02,0.09,
4.795,0.42,-0.03,0.21,-0.00,0.01,0.08,
4.797,0.37,-0.09,-0.04,-0.00,0.01,0.08,
4.798,0.37,-0.09,-0.04,-0.00,0.02,0.08,
4.802,0.37,-0.09,-0.04,0.00,0.02,0.08,
4.803,-0.06,0.33,-0.48,0.00,0.02,0.08,
4.803,-0.06,0.33,-0.48,0.00,0.07,0.09,
4.805,-0.06,0.33,-0.48,0.01,0.07,0.08,
4.808,0.45,-0.40,0.25,0.01,0.07,0.08,
4.809,0.45,-0.40,0.25,0.02,0.03,0.05,
4.81,0.45,-0.40,0.25,0.02,0.02,0.05,
4.816,0.18,-0.22,-0.07,0.02,0.02,0.05,
4.817,0.18,-0.22,-0.07,0.03,0.03,0.05,
4.817,0.18,-0.22,-0.07,0.03,0.07,0.06,
4.817,0.18,0.26,-0.23,0.03,0.07,0.06,
4.818,0.18,0.26,-0.23,0.03,0.06,0.06,
4.82,0.18,0.26,-0.23,0.02,0.03,0.05,
4.824,0.51,-0.10,0.14,0.02,0.03,0.05,
4.824,0.51,-0.10,0.14,0.02,0.02,0.05,
4.825,0.51,-0.10,0.14,0.02,0.02,0.04,
4.827,0.39,-0.06,-0.10,0.02,0.02,0.04,
4.828,0.39,-0.06,-0.10,0.02,0.01,0.04,
4.83,0.39,-0.06,-0.10,0.02,0.02,0.04,
4.834,0.14,0.23,-0.37,0.02,0.02,0.04,
4.834,0.14,0.23,-0.37,0.02,0.03,0.04,
4.838,0.14,0.23,-0.37,0.02,0.07,0.06,
4.839,0.03,0.57,-0.30,0.02,0.07,0.06,
4.839,0.03,0.57,-0.30,0.00,0.05,0.06,
4.841,0.03,0.57,-0.30,0.00,0.00,0.06,
4.843,0.53,-0.18,0.32,0.00,0.00,0.06,
4.843,0.53,-0.18,0.32,0.00,-0.02,0.05,
4.845,0.53,-0.18,0.32,0.01,-0.00,0.05,
4.847,-0.08,0.13,-0.48,0.01,-0.00,0.05,
4.848,-0.08,0.13,-0.48,0.01,0.03,0.05,
4.85,-0.08,0.13,-0.48,0.02,0.01,0.03,
4.853,0.55,-0.70,0.21,0.02,0.01,0.03,
4.853,0.55,-0.70,0.21,0.03,-0.02,0.00,
4.855,0.55,-0.70,0.21,0.04,-0.03,-0.01,
4.857,0.38,-0.43,-0.17,0.04,-0.03,-0.01,
4.858,0.38,-0.43,-0.17,0.04,-0.02,-0.01,
4.86,0.38,-0.43,-0.17,0.05,-0.01,-0.02,
4.863,0.02,0.23,-0.59,0.05,-0.01,-0.02,
4.863,0.02,0.23,-0.59,0.05,0.02,-0.02,
4.867,0.02,0.23,-0.59,0.05,0.04,-0.01,
4.87,0.33,0.25,-0.08,0.05,0.04,-0.01,
4.871,0.33,0.25,-0.08,0.04,0.01,-0.02,
4.871,0.33,0.25,-0.08,0.04,-0.01,-0.02,
4.874,0.46,-0.09,0.07,0.04,-0.01,-0.02,
4.874,0.46,-0.09,0.07,0.04,-0.02,-0.03,
4.875,0.46,-0.09,0.07,0.04,-0.02,-0.03,
4.878,0.31,0.10,-0.23,0.04,-0.02,-0.03,
4.879,0.31,0.10,-0.23,0.04,-0.01,-0.03,
4.88,0.31,0.10,-0.23,0.04,-0.01,-0.03,
4.883,0.36,-0.05,-0.04,0.04,-0.01,-0.03,
4.883,0.36,-0.05,-0.04,0.04,-0.01,-0.04,
4.886,0.36,-0.05,-0.04,0.05,-0.02,-0.05,
4.888,0.22,-0.12,-0.08,0.05,-0.02,-0.05,
4.888,0.22,-0.12,-0.08,0.05,-0.01,-0.06,
4.891,0.22,-0.12,-0.08,0.05,-0.01,-0.06,
4.894,0.03,0.20,-0.26,0.05,-0.01,-0.06,
4.895,0.03,0.20,-0.26,0.06,0.01,-0.06,
4.895,0.03,0.20,-0.26,0.05,0.04,-0.05,
4.898,-0.01,0.63,-0.20,0.05,0.04,-0.05,
4.899,-0.01,0.63,-0.20,0.05,0.03,-0.04,
4.901,-0.01,0.63,-0.20,0.04,-0.01,-0.05,
4.903,0.49,-0.04,0.45,0.04,-0.01,-0.05,
4.904,0.49,-0.04,0.45,0.04,-0.04,-0.05,
4.905,0.49,-0.04,0.45,0.05,-0.04,-0.06,
4.908,0.29,-0.33,0.08,0.05,-0.04,-0.06,
4.908,0.29,-0.33,0.08,0.06,-0.03,-0.07,
4.91,0.29,-0.33,0.08,0.05,-0.02,-0.07,
4.913,0.21,-0.02,-0.05,0.05,-0.02,-0.07,
4.914,0.21,-0.02,-0.05,0.06,-0.01,-0.08,
4.915,0.21,-0.02,-0.05,0.06,-0.02,-0.08,
4.918,0.19,0.11,-0.00,0.06,-0.02,-0.08,
4.919,0.19,0.11,-0.00,0.06,-0.02,-0.08,
4.92,0.19,0.11,-0.00,0.06,0.00,-0.08,
4.923,-0.21,0.56,-0.44,0.06,0.00,-0.08,
4.924,-0.21,0.56,-0.44,0.05,0.04,-0.07,
4.926,-0.21,0.56,-0.44,0.05,0.01,-0.06,
4.929,0.43,0.14,0.33,0.05,0.01,-0.06,
4.929,0.43,0.14,0.33,0.04,-0.02,-0.07,
4.933,0.43,0.14,0.33,0.04,-0.04,-0.07,
4.934,0.37,-0.14,0.10,0.04,-0.04,-0.07,
4.934,0.37,-0.14,0.10,0.04,-0.04,-0.07,
4.935,0.37,-0.14,0.10,0.05,-0.04,-0.08,
4.938,0.13,-0.30,-0.19,0.05,-0.04,-0.08,
4.939,0.13,-0.30,-0.19,0.05,-0.02,-0.09,
4.941,0.13,-0.30,-0.19,0.05,0.02,-0.08,
4.944,-0.16,0.29,-0.35,0.05,0.02,-0.08,
4.945,-0.16,0.29,-0.35,0.05,0.02,-0.07,
4.945,-0.16,0.29,-0.35,0.05,-0.02,-0.08,
4.948,0.44,-0.27,0.41,0.05,-0.02,-0.08,
4.949,0.44,-0.27,0.41,0.05,-0.04,-0.09,
4.951,0.44,-0.27,0.41,0.06,-0.05,-0.09,
4.954,0.18,-0.07,-0.05,0.06,-0.05,-0.09,
4.954,0.18,-0.07,-0.05,0.05,-0.05,-0.09,
4.956,0.18,-0.07,-0.05,0.05,-0.04,-0.08,
4.959,0.10,0.22,-0.11,0.05,-0.04,-0.08,
4.959,0.10,0.22,-0.11,0.05,-0.04,-0.08,
4.962,0.10,0.22,-0.11,0.05,-0.01,-0.07,
4.965,-0.32,0.40,-0.25,0.05,-0.01,-0.07,
4.965,-0.32,0.40,-0.25,0.05,-0.00,-0.06,
4.966,-0.32,0.40,-0.25,0.06,-0.05,-0.08,
4.97,0.31,-0.52,0.44,0.06,-0.05,-0.08,
4.971,0.31,-0.52,0.44,0.06,-0.08,-0.09,
4.971,0.31,-0.52,0.44,0.07,-0.08,-0.09,
4.973,0.08,-0.30,-0.05,0.07,-0.08,-0.09,
4.973,0.08,-0.30,-0.05,0.07,-0.07,-0.09,
4.975,0.08,-0.30,-0.05,0.07,-0.06,-0.09,
4.978,0.04,-0.01,-0.14,0.07,-0.06,-0.09,
4.978,0.04,-0.01,-0.14,0.07,-0.06,-0.09,
4.982,0.04,-0.01,-0.14,0.07,-0.05,-0.09,
4.983,-0.29,0.38,-0.38,0.07,-0.05,-0.09,
4.983,-0.29,0.38,-0.38,0.07,-0.02,-0.08,
4.987,-0.29,0.38,-0.38,0.07,-0.01,-0.07,
