time,ax,ay,az,wx,wy,wz,
0.002,-0.40,0.39,-0.49,-0.30,-0.55,0.16,
0.002,-0.40,0.39,-0.49,-0.34,-0.56,0.16,
0.003,-0.40,0.39,-0.49,-0.37,-0.57,0.16,
0.003,-0.30,0.33,-0.20,-0.37,-0.57,0.16,
0.004,-0.30,0.33,-0.20,-0.40,-0.57,0.16,
0.004,-0.30,0.33,-0.20,-0.41,-0.57,0.16,
0.005,-0.21,0.29,0.12,-0.41,-0.57,0.16,
0.01,-0.21,0.29,0.12,-0.42,-0.57,0.16,
0.011,-0.21,0.29,0.12,-0.42,-0.57,0.16,
0.011,-0.16,0.25,0.35,-0.42,-0.57,0.16,
0.012,-0.16,0.25,0.35,-0.42,-0.56,0.17,
0.012,-0.16,0.25,0.35,-0.41,-0.56,0.17,
0.013,-0.07,0.18,0.46,-0.41,-0.56,0.17,
0.013,-0.07,0.18,0.46,-0.39,-0.56,0.17,
0.014,-0.07,0.18,0.46,-0.38,-0.55,0.18,
0.019,0.03,0.12,0.52,-0.38,-0.55,0.18,
0.019,0.03,0.12,0.52,-0.36,-0.54,0.18,
0.02,0.03,0.12,0.52,-0.34,-0.54,0.19,
0.031,0.03,0.12,0.52,-0.31,-0.53,0.19,
0.032,0.14,0.05,0.62,-0.31,-0.53,0.19,
0.032,0.14,0.05,0.62,-0.29,-0.53,0.19,
0.033,0.24,0.01,0.68,-0.29,-0.53,0.19,
0.033,0.24,0.01,0.68,-0.26,-0.52,0.19,
0.034,0.24,0.01,0.68,-0.23,-0.52,0.19,
0.034,0.28,-0.04,0.71,-0.23,-0.52,0.19,
0.035,0.28,-0.04,0.71,-0.20,-0.51,0.19,
0.035,0.28,-0.04,0.71,-0.17,-0.50,0.19,
0.044,0.25,-0.06,0.69,-0.17,-0.50,0.19,
0.045,0.25,-0.06,0.69,-0.14,-0.49,0.19,
0.046,0.25,-0.06,0.69,-0.11,-0.48,0.19,
0.046,0.24,-0.09,0.63,-0.11,-0.48,0.19,
0.047,0.24,-0.09,0.63,-0.08,-0.48,0.19,
0.047,0.24,-0.09,0.63,-0.05,-0.47,0.19,
0.048,0.26,-0.09,0.52,-0.05,-0.47,0.19,
0.048,0.26,-0.09,0.52,-0.03,-0.47,0.19,
0.05,0.26,-0.09,0.52,-0.00,-0.46,0.19,
0.055,0.28,-0.13,0.36,-0.00,-0.46,0.19,
0.056,0.28,-0.13,0.36,0.02,-0.46,0.19,
0.057,0.28,-0.13,0.36,0.04,-0.45,0.19,
0.057,0.28,-0.17,0.19,0.04,-0.45,0.19,
0.058,0.28,-0.17,0.19,0.05,-0.44,0.19,
0.061,0.28,-0.17,0.19,0.07,-0.43,0.18,
0.063,0.18,-0.18,0.05,0.07,-0.43,0.18,
0.064,0.18,-0.18,0.05,0.08,-0.43,0.18,
0.064,0.18,-0.18,0.05,0.09,-0.42,0.18,
0.067,0.07,-0.18,-0.02,0.09,-0.42,0.18,
0.067,0.07,-0.18,-0.02,0.09,-0.42,0.18,
0.07,0.07,-0.18,-0.02,0.10,-0.42,0.18,
0.075,-0.04,-0.13,-0.09,0.10,-0.42,0.18,
0.075,-0.04,-0.13,-0.09,0.09,-0.43,0.18,
0.076,-0.04,-0.13,-0.09,0.09,-0.43,0.18,
0.078,-0.04,-0.13,-0.09,0.09,-0.44,0.18,
0.079,-0.11,-0.06,-0.20,0.09,-0.44,0.18,
0.081,-0.11,-0.06,-0.20,0.08,-0.44,0.18,
0.083,-0.17,0.04,-0.35,0.08,-0.44,0.18,
0.084,-0.17,0.04,-0.35,0.06,-0.45,0.18,
0.086,-0.17,0.04,-0.35,0.05,-0.46,0.18,
0.089,-0.24,0.16,-0.44,0.05,-0.46,0.18,
0.089,-0.24,0.16,-0.44,0.03,-0.47,0.19,
0.091,-0.24,0.16,-0.44,0.01,-0.49,0.19,
0.092,-0.42,0.36,-0.41,0.01,-0.49,0.19,
0.093,-0.42,0.36,-0.41,-0.01,-0.51,0.20,
0.095,-0.42,0.36,-0.41,-0.04,-0.53,0.21,
0.098,-0.62,0.54,-0.38,-0.04,-0.53,0.21,
0.098,-0.62,0.54,-0.38,-0.06,-0.55,0.22,
0.1,-0.62,0.54,-0.38,-0.09,-0.57,0.24,
0.105,-0.61,0.51,-0.41,-0.09,-0.57,0.24,
0.105,-0.61,0.51,-0.41,-0.11,-0.58,0.24,
0.106,-0.61,0.51,-0.41,-0.14,-0.60,0.26,
0.109,-0.46,0.31,-0.34,-0.14,-0.60,0.26,
0.11,-0.46,0.31,-0.34,-0.17,-0.62,0.26,
0.111,-0.46,0.31,-0.34,-0.19,-0.65,0.26,
0.113,-0.55,0.28,-0.36,-0.19,-0.65,0.26,
0.114,-0.55,0.28,-0.36,-0.22,-0.66,0.27,
0.115,-0.55,0.28,-0.36,-0.25,-0.65,0.28,
0.117,-0.83,0.62,-1.19,-0.25,-0.65,0.28,
0.118,-0.83,0.62,-1.19,-0.28,-0.62,0.30,
0.132,-0.83,0.62,-1.19,-0.31,-0.60,0.31,
0.133,-0.78,0.77,-1.09,-0.31,-0.60,0.31,
0.134,-0.78,0.77,-1.09,-0.35,-0.59,0.31,
0.134,-0.78,0.77,-1.09,-0.37,-0.60,0.33,
0.135,-0.85,0.76,-0.33,-0.37,-0.60,0.33,
0.135,-0.85,0.76,-0.33,-0.40,-0.61,0.34,
0.136,-0.85,0.76,-0.33,-0.42,-0.64,0.35,
0.137,-0.91,0.67,0.19,-0.42,-0.64,0.35,
0.137,-0.91,0.67,0.19,-0.43,-0.66,0.36,
0.138,-0.91,0.67,0.19,-0.45,-0.69,0.37,
0.138,-0.84,0.57,0.24,-0.45,-0.69,0.37,
0.139,-0.84,0.57,0.24,-0.47,-0.71,0.39,
0.14,-0.84,0.57,0.24,-0.49,-0.73,0.40,
0.148,-0.67,0.45,-0.04,-0.49,-0.73,0.40,
0.149,-0.67,0.45,-0.04,-0.51,-0.74,0.41,
0.15,-0.67,0.45,-0.04,-0.53,-0.74,0.41,
0.15,-0.45,0.31,-0.44,-0.53,-0.74,0.41,
0.151,-0.45,0.31,-0.44,-0.55,-0.73,0.41,
0.151,-0.45,0.31,-0.44,-0.58,-0.72,0.41,
0.152,-0.24,0.24,-0.71,-0.58,-0.72,0.41,
0.153,-0.24,0.24,-0.71,-0.61,-0.70,0.40,
0.162,-0.24,0.24,-0.71,-0.63,-0.68,0.39,
0.163,-0.20,0.27,-0.61,-0.63,-0.68,0.39,
0.169,-0.20,0.27,-0.61,-0.66,-0.66,0.38,
0.169,-0.20,0.27,-0.61,-0.67,-0.65,0.38,
0.17,-0.32,0.35,-0.17,-0.67,-0.65,0.38,
0.17,-0.32,0.35,-0.17,-0.69,-0.64,0.38,
0.171,-0.32,0.35,-0.17,-0.71,-0.63,0.38,
0.171,-0.26,0.30,-0.24,-0.71,-0.63,0.38,
0.172,-0.26,0.30,-0.24,-0.72,-0.61,0.38,
0.172,-0.26,0.30,-0.24,-0.73,-0.58,0.38,
0.18,-0.26,0.30,-0.24,-0.74,-0.55,0.37,
0.181,-0.26,0.30,-0.24,-0.75,-0.51,0.37,
0.181,-0.18,0.18,-0.43,-0.75,-0.51,0.37,
0.181,-0.18,0.18,-0.43,-0.76,-0.47,0.36,
0.182,-0.13,0.11,-0.63,-0.76,-0.47,0.36,
0.182,-0.13,0.11,-0.63,-0.77,-0.42,0.36,
0.183,-0.10,0.03,-0.91,-0.77,-0.42,0.36,
0.183,-0.10,0.03,-0.91,-0.78,-0.36,0.35,
0.185,-0.10,0.03,-0.91,-0.79,-0.30,0.35,
0.191,-0.21,-0.01,-1.21,-0.79,-0.30,0.35,
0.192,-0.21,-0.01,-1.21,-0.80,-0.23,0.35,
0.193,-0.21,-0.01,-1.21,-0.81,-0.15,0.35,
0.193,-0.43,0.08,-1.70,-0.81,-0.15,0.35,
0.194,-0.43,0.08,-1.70,-0.82,-0.06,0.35,
0.195,-0.43,0.08,-1.70,-0.84,0.03,0.35,
0.198,-0.58,0.45,-2.20,-0.84,0.03,0.35,
0.199,-0.58,0.45,-2.20,-0.86,0.12,0.36,
0.2,-0.58,0.45,-2.20,-0.88,0.21,0.37,
0.205,-0.60,0.76,-2.72,-0.88,0.21,0.37,
0.206,-0.60,0.76,-2.72,-0.90,0.30,0.39,
0.206,-0.60,0.76,-2.72,-0.93,0.40,0.40,
0.209,-0.64,0.89,-2.93,-0.93,0.40,0.40,
0.209,-0.64,0.89,-2.93,-0.95,0.50,0.42,
0.211,-0.64,0.89,-2.93,-0.98,0.60,0.43,
0.214,-0.76,0.93,-2.72,-0.98,0.60,0.43,
0.214,-0.76,0.93,-2.72,-1.00,0.70,0.44,
0.215,-0.76,0.93,-2.72,-1.02,0.78,0.46,
0.219,-0.70,0.76,-2.07,-1.02,0.78,0.46,
0.22,-0.70,0.76,-2.07,-1.04,0.84,0.47,
0.22,-0.70,0.76,-2.07,-1.06,0.89,0.49,
0.227,-0.49,0.37,-1.11,-1.06,0.89,0.49,
0.227,-0.49,0.37,-1.11,-1.07,0.92,0.50,
0.228,-0.49,0.37,-1.11,-1.08,0.93,0.50,
0.228,-0.13,-0.14,0.07,-1.08,0.93,0.50,
0.229,-0.13,-0.14,0.07,-1.09,0.90,0.50,
0.231,-0.13,-0.14,0.07,-1.10,0.85,0.50,
0.234,0.23,-0.74,1.24,-1.10,0.85,0.50,
0.234,0.23,-0.74,1.24,-1.11,0.79,0.49,
0.237,0.23,-0.74,1.24,-1.11,0.70,0.47,
0.238,0.63,-1.45,2.30,-1.11,0.70,0.47,
0.241,0.63,-1.45,2.30,-1.12,0.59,0.45,
0.242,0.63,-1.45,2.30,-1.14,0.48,0.43,
0.244,1.04,-2.09,2.55,-1.14,0.48,0.43,
0.245,1.04,-2.09,2.55,-1.16,0.37,0.40,
0.246,1.04,-2.09,2.55,-1.19,0.26,0.36,
0.249,1.60,-2.48,2.60,-1.19,0.26,0.36,
0.249,1.60,-2.48,2.60,-1.22,0.14,0.31,
0.25,1.60,-2.48,2.60,-1.25,0.03,0.26,
0.254,1.82,-2.71,2.14,-1.25,0.03,0.26,
0.255,1.82,-2.71,2.14,-1.29,-0.06,0.20,
0.256,1.82,-2.71,2.14,-1.33,-0.12,0.15,
0.259,1.79,-2.78,1.47,-1.33,-0.12,0.15,
0.259,1.79,-2.78,1.47,-1.39,-0.17,0.09,
0.26,1.79,-2.78,1.47,-1.45,-0.21,0.03,
0.264,1.84,-2.71,0.95,-1.45,-0.21,0.03,
0.265,1.84,-2.71,0.95,-1.51,-0.24,-0.03,
0.265,1.84,-2.71,0.95,-1.58,-0.27,-0.09,
0.269,1.80,-2.51,0.43,-1.58,-0.27,-0.09,
0.269,1.80,-2.51,0.43,-1.64,-0.29,-0.15,
0.273,1.80,-2.51,0.43,-1.71,-0.30,-0.21,
0.274,1.65,-2.26,-0.11,-1.71,-0.30,-0.21,
0.274,1.65,-2.26,-0.11,-1.78,-0.30,-0.26,
0.278,1.65,-2.26,-0.11,-1.84,-0.30,-0.30,
0.279,1.46,-1.92,-0.27,-1.84,-0.30,-0.30,
0.279,1.46,-1.92,-0.27,-1.90,-0.30,-0.34,
0.28,1.46,-1.92,-0.27,-1.96,-0.31,-0.37,
0.285,1.19,-1.51,-0.23,-1.96,-0.31,-0.37,
0.285,1.19,-1.51,-0.23,-2.02,-0.31,-0.39,
0.286,1.19,-1.51,-0.23,-2.06,-0.32,-0.41,
0.289,0.82,-1.10,0.13,-2.06,-0.32,-0.41,
0.29,0.82,-1.10,0.13,-2.09,-0.34,-0.42,
0.291,0.82,-1.10,0.13,-2.12,-0.35,-0.42,
0.294,0.40,-0.67,0.30,-2.12,-0.35,-0.42,
0.295,0.40,-0.67,0.30,-2.14,-0.36,-0.42,
0.295,0.40,-0.67,0.30,-2.16,-0.37,-0.42,
0.299,0.09,-0.40,0.24,-2.16,-0.37,-0.42,
0.3,0.09,-0.40,0.24,-2.18,-0.36,-0.41,
0.3,0.09,-0.40,0.24,-2.18,-0.36,-0.41,
0.303,0.08,-0.12,0.21,-2.18,-0.36,-0.41,
0.304,0.08,-0.12,0.21,-2.18,-0.35,-0.42,
0.306,0.08,-0.12,0.21,-2.18,-0.34,-0.42,
0.308,0.08,0.06,0.26,-2.18,-0.34,-0.42,
0.309,0.08,0.06,0.26,-2.17,-0.33,-0.43,
0.31,0.08,0.06,0.26,-2.16,-0.32,-0.44,
0.313,0.12,0.10,0.38,-2.16,-0.32,-0.44,
0.313,0.12,0.10,0.38,-2.13,-0.31,-0.45,
0.315,0.12,0.10,0.38,-2.10,-0.30,-0.46,
0.318,0.36,0.02,0.76,-2.10,-0.30,-0.46,
0.319,0.36,0.02,0.76,-2.06,-0.30,-0.48,
0.33,0.36,0.02,0.76,-2.01,-0.30,-0.50,
0.332,0.71,-0.19,1.10,-2.01,-0.30,-0.50,
0.332,0.71,-0.19,1.10,-1.96,-0.31,-0.52,
0.338,0.71,-0.19,1.10,-1.91,-0.33,-0.54,
0.339,0.80,-0.35,1.24,-1.91,-0.33,-0.54,
0.339,0.80,-0.35,1.24,-1.86,-0.36,-0.56,
0.34,0.80,-0.35,1.24,-1.80,-0.38,-0.57,
0.341,0.61,-0.46,1.01,-1.80,-0.38,-0.57,
0.342,0.61,-0.46,1.01,-1.76,-0.39,-0.58,
0.343,0.61,-0.46,1.01,-1.71,-0.40,-0.58,
0.343,0.40,-0.49,0.58,-1.71,-0.40,-0.58,
0.344,0.40,-0.49,0.58,-1.67,-0.40,-0.58,
0.344,0.40,-0.49,0.58,-1.63,-0.39,-0.57,
0.345,0.46,-0.45,0.35,-1.63,-0.39,-0.57,
0.346,0.46,-0.45,0.35,-1.59,-0.38,-0.56,
0.346,0.46,-0.45,0.35,-1.55,-0.36,-0.56,
0.348,0.65,-0.44,0.43,-1.55,-0.36,-0.56,
0.35,0.65,-0.44,0.43,-1.51,-0.35,-0.55,
0.35,0.65,-0.44,0.43,-1.46,-0.34,-0.55,
0.353,0.73,-0.39,0.54,-1.46,-0.34,-0.55,
0.354,0.73,-0.39,0.54,-1.41,-0.32,-0.54,
0.356,0.73,-0.39,0.54,-1.36,-0.30,-0.53,
0.359,0.66,-0.30,0.65,-1.36,-0.30,-0.53,
0.36,0.66,-0.30,0.65,-1.30,-0.28,-0.52,
0.362,0.66,-0.30,0.65,-1.24,-0.26,-0.50,
0.363,0.54,-0.25,0.93,-1.24,-0.26,-0.50,
0.363,0.54,-0.25,0.93,-1.18,-0.22,-0.48,
0.366,0.54,-0.25,0.93,-1.12,-0.18,-0.45,
0.369,0.52,-0.20,1.17,-1.12,-0.18,-0.45,
0.369,0.52,-0.20,1.17,-1.06,-0.13,-0.43,
0.374,0.52,-0.20,1.17,-1.00,-0.08,-0.40,
0.375,0.40,-0.13,1.09,-1.00,-0.08,-0.40,
0.379,-0.10,0.33,0.83,-1.00,-0.08,-0.40,
0.379,-0.10,0.33,0.83,-0.94,-0.02,-0.36,
0.38,-0.10,0.33,0.83,-0.88,0.06,-0.33,
0.38,-0.10,0.33,0.83,-0.82,0.15,-0.29,
0.381,-0.10,0.33,0.83,-0.75,0.25,-0.27,
0.384,-0.15,0.66,0.63,-0.75,0.25,-0.27,
0.384,-0.15,0.66,0.63,-0.69,0.36,-0.25,
0.385,-0.15,0.66,0.63,-0.62,0.49,-0.25,
0.389,-0.15,0.66,0.63,-0.57,0.62,-0.26,
0.392,0.36,0.62,0.24,-0.57,0.62,-0.26,
0.392,0.36,0.62,0.24,-0.52,0.74,-0.28,
0.394,0.36,0.62,0.24,-0.47,0.86,-0.31,
0.394,0.89,0.41,-0.18,-0.47,0.86,-0.31,
0.397,0.89,0.41,-0.18,-0.42,0.98,-0.35,
0.399,0.94,0.16,-0.42,-0.42,0.98,-0.35,
0.4,0.94,0.16,-0.42,-0.38,1.08,-0.38,
0.4,0.94,0.16,-0.42,-0.35,1.16,-0.41,
0.405,0.56,-0.06,-0.44,-0.35,1.16,-0.41,
0.406,0.56,-0.06,-0.44,-0.32,1.23,-0.43,
0.406,0.56,-0.06,-0.44,-0.31,1.30,-0.45,
0.41,0.17,-0.22,-0.30,-0.31,1.30,-0.45,
0.41,0.17,-0.22,-0.30,-0.29,1.36,-0.45,
0.411,0.17,-0.22,-0.30,-0.28,1.40,-0.45,
0.414,-0.04,-0.36,0.06,-0.28,1.40,-0.45,
0.414,-0.04,-0.36,0.06,-0.27,1.42,-0.44,
0.415,-0.04,-0.36,0.06,-0.27,1.43,-0.43,
0.419,0.04,-0.49,0.58,-0.27,1.43,-0.43,
0.42,0.04,-0.49,0.58,-0.27,1.42,-0.43,
0.428,0.04,-0.49,0.58,-0.27,1.40,-0.42,
0.429,0.22,-0.57,1.21,-0.27,1.40,-0.42,
0.43,0.22,-0.57,1.21,-0.27,1.35,-0.40,
0.43,0.22,-0.57,1.21,-0.27,1.30,-0.40,
0.431,0.40,-0.51,1.73,-0.27,1.30,-0.40,
0.431,0.40,-0.51,1.73,-0.27,1.23,-0.38,
0.431,0.40,-0.51,1.73,-0.27,1.16,-0.38,
0.435,0.43,-0.33,2.01,-0.27,1.16,-0.38,
0.435,0.43,-0.33,2.01,-0.27,1.09,-0.36,
0.436,0.43,-0.33,2.01,-0.27,1.00,-0.35,
0.442,0.30,-0.16,1.94,-0.27,1.00,-0.35,
0.442,0.30,-0.16,1.94,-0.27,0.92,-0.33,
0.443,0.30,-0.16,1.94,-0.27,0.85,-0.31,
0.444,0.01,-0.12,1.48,-0.27,0.85,-0.31,
0.445,0.01,-0.12,1.48,-0.28,0.79,-0.27,
0.447,0.01,-0.12,1.48,-0.27,0.74,-0.22,
0.45,-0.48,0.20,1.74,-0.27,0.74,-0.22,
0.451,-0.48,0.20,1.74,-0.24,0.68,-0.16,
0.452,-0.48,0.20,1.74,-0.21,0.61,-0.09,
0.458,-0.08,0.36,1.62,-0.21,0.61,-0.09,
0.459,-0.08,0.36,1.62,-0.18,0.54,-0.04,
0.46,-0.08,0.36,1.62,-0.14,0.48,0.02,
0.46,0.32,0.50,1.16,-0.14,0.48,0.02,
0.461,0.32,0.50,1.16,-0.11,0.42,0.07,
0.463,0.32,0.50,1.16,-0.07,0.36,0.12,
0.464,0.61,0.53,0.81,-0.07,0.36,0.12,
0.464,0.61,0.53,0.81,-0.02,0.31,0.17,
0.465,0.61,0.53,0.81,0.03,0.29,0.20,
0.469,0.63,0.32,0.42,0.03,0.29,0.20,
0.473,0.63,0.32,0.42,0.08,0.28,0.24,
0.474,0.63,0.32,0.42,0.13,0.28,0.28,
0.474,0.47,-0.15,0.12,0.13,0.28,0.28,
0.475,0.47,-0.15,0.12,0.18,0.30,0.30,
0.476,0.47,-0.15,0.12,0.23,0.33,0.32,
0.48,0.34,-0.50,-0.21,0.23,0.33,0.32,
0.481,0.34,-0.50,-0.21,0.29,0.37,0.34,
0.482,0.34,-0.50,-0.21,0.34,0.44,0.36,
0.483,0.26,-0.58,-0.59,0.34,0.44,0.36,
0.484,0.26,-0.58,-0.59,0.39,0.51,0.38,
0.488,0.26,-0.58,-0.59,0.43,0.59,0.39,
0.49,-0.04,-0.66,-0.83,0.43,0.59,0.39,
0.491,-0.04,-0.66,-0.83,0.48,0.68,0.41,
0.492,-0.04,-0.66,-0.83,0.53,0.77,0.43,
0.499,-0.22,-0.67,-1.05,0.53,0.77,0.43,
0.499,-0.22,-0.67,-1.05,0.57,0.85,0.44,
0.5,-0.22,-0.67,-1.05,0.61,0.94,0.45,
0.5,-0.22,-0.66,-1.56,0.61,0.94,0.45,
0.502,-0.22,-0.66,-1.56,0.64,1.02,0.47,
0.503,-0.22,-0.66,-1.56,0.68,1.08,0.47,
0.51,-0.22,-0.66,-1.56,0.71,1.12,0.48,
0.511,-0.14,-0.66,-1.65,0.71,1.12,0.48,
0.512,-0.14,-0.66,-1.65,0.75,1.13,0.48,
0.513,-0.31,-0.65,-1.25,0.75,1.13,0.48,
0.513,-0.31,-0.65,-1.25,0.79,1.11,0.48,
0.514,-0.31,-0.65,-1.25,0.83,1.08,0.47,
0.515,-0.31,-0.65,-1.25,0.88,1.02,0.46,
0.515,-0.36,-0.48,-0.73,0.88,1.02,0.46,
0.517,-0.36,-0.48,-0.73,0.93,0.93,0.45,
0.524,-0.08,-0.16,-0.34,0.93,0.93,0.45,
0.525,-0.08,-0.16,-0.34,0.99,0.85,0.43,
0.525,-0.08,-0.16,-0.34,1.04,0.78,0.40,
0.525,0.10,-0.07,-0.18,1.04,0.78,0.40,
0.526,0.10,-0.07,-0.18,1.10,0.73,0.36,
0.526,0.10,-0.07,-0.18,1.15,0.70,0.33,
0.529,-0.01,-0.15,0.13,1.15,0.70,0.33,
0.529,-0.01,-0.15,0.13,1.20,0.66,0.28,
0.532,-0.01,-0.15,0.13,1.25,0.62,0.24,
0.534,-0.05,-0.20,0.54,1.25,0.62,0.24,
0.534,-0.05,-0.20,0.54,1.29,0.58,0.18,
0.539,-0.05,-0.20,0.54,1.33,0.54,0.13,
0.54,-0.05,-0.20,0.54,1.36,0.49,0.06,
0.541,0.11,-0.21,0.77,1.36,0.49,0.06,
0.542,0.11,-0.21,0.77,1.39,0.44,-0.01,
0.543,0.42,-0.06,0.95,1.39,0.44,-0.01,
0.544,0.42,-0.06,0.95,1.42,0.38,-0.08,
0.546,0.42,-0.06,0.95,1.44,0.31,-0.16,
0.549,0.73,0.22,0.95,1.44,0.31,-0.16,
0.549,0.73,0.22,0.95,1.46,0.24,-0.24,
0.551,0.73,0.22,0.95,1.48,0.17,-0.32,
0.554,0.96,0.44,0.74,1.48,0.17,-0.32,
0.555,0.96,0.44,0.74,1.49,0.10,-0.40,
0.56,0.97,0.56,0.27,1.49,0.10,-0.40,
0.561,0.97,0.56,0.27,1.50,0.03,-0.48,
0.561,0.97,0.56,0.27,1.50,-0.01,-0.56,
0.562,0.97,0.56,0.27,1.49,-0.03,-0.63,
0.564,0.64,0.52,-0.06,1.49,-0.03,-0.63,
0.565,0.64,0.52,-0.06,1.48,-0.05,-0.69,
0.567,0.64,0.52,-0.06,1.47,-0.07,-0.75,
0.569,0.81,0.34,0.09,1.47,-0.07,-0.75,
0.57,0.81,0.34,0.09,1.45,-0.09,-0.81,
0.574,0.81,0.34,0.09,1.44,-0.12,-0.87,
0.575,1.50,0.07,0.40,1.44,-0.12,-0.87,
0.576,1.50,0.07,0.40,1.43,-0.16,-0.92,
0.577,1.50,0.07,0.40,1.42,-0.20,-0.98,
0.58,1.50,0.07,0.40,1.41,-0.22,-1.03,
0.581,1.70,0.06,0.03,1.41,-0.22,-1.03,
0.581,1.70,0.06,0.03,1.40,-0.24,-1.07,
0.585,1.21,0.30,-0.62,1.40,-0.24,-1.07,
0.585,1.21,0.30,-0.62,1.39,-0.24,-1.09,
0.586,1.21,0.30,-0.62,1.40,-0.25,-1.10,
0.589,1.21,0.30,-0.62,1.41,-0.26,-1.10,
0.59,0.59,0.49,-0.56,1.41,-0.26,-1.10,
0.591,0.59,0.49,-0.56,1.42,-0.29,-1.09,
0.596,0.59,0.49,-0.56,1.44,-0.33,-1.08,
0.596,0.05,0.53,-0.20,1.44,-0.33,-1.08,
0.597,0.05,0.53,-0.20,1.47,-0.38,-1.05,
0.601,-0.29,0.47,-0.10,1.47,-0.38,-1.05,
0.601,-0.29,0.47,-0.10,1.50,-0.42,-1.02,
0.602,-0.29,0.47,-0.10,1.53,-0.47,-0.98,
0.61,-0.45,0.32,-0.15,1.53,-0.47,-0.98,
0.611,-0.45,0.32,-0.15,1.56,-0.50,-0.94,
0.611,-0.45,0.32,-0.15,1.60,-0.54,-0.90,
0.612,-0.52,0.18,-0.17,1.60,-0.54,-0.90,
0.612,-0.52,0.18,-0.17,1.62,-0.56,-0.85,
0.613,-0.52,0.18,-0.17,1.65,-0.58,-0.79,
0.617,-0.76,0.05,-0.00,1.65,-0.58,-0.79,
0.617,-0.76,0.05,-0.00,1.67,-0.61,-0.73,
0.618,-0.76,0.05,-0.00,1.70,-0.65,-0.66,
0.623,-1.19,-0.05,0.24,1.70,-0.65,-0.66,
0.624,-1.19,-0.05,0.24,1.73,-0.69,-0.59,
0.624,-1.55,-0.11,0.40,1.73,-0.69,-0.59,
0.627,-1.55,-0.11,0.40,1.76,-0.73,-0.53,
0.628,-1.55,-0.11,0.40,1.79,-0.78,-0.46,
0.628,-1.55,-0.11,0.40,1.83,-0.84,-0.39,
0.629,-1.65,-0.23,0.42,1.83,-0.84,-0.39,
0.629,-1.65,-0.23,0.42,1.86,-0.89,-0.33,
0.632,-1.65,-0.23,0.42,1.90,-0.94,-0.27,
0.635,-1.65,-0.23,0.42,1.93,-0.98,-0.22,
0.635,-1.56,-0.35,0.27,1.93,-0.98,-0.22,
0.639,-1.56,-0.35,0.27,1.96,-1.03,-0.18,
0.64,-1.34,-0.34,0.01,1.96,-1.03,-0.18,
0.641,-1.34,-0.34,0.01,1.98,-1.07,-0.14,
0.641,-1.34,-0.34,0.01,2.00,-1.03,-0.11,
0.644,-1.02,-0.46,-1.00,2.00,-1.03,-0.11,
0.646,-1.02,-0.46,-1.00,2.11,-0.52,-0.09,
0.647,-1.02,-0.46,-1.00,2.28,0.09,-0.08,
0.649,-0.69,-0.42,1.35,2.28,0.09,-0.08,
0.65,-0.69,-0.42,1.35,2.38,0.16,-0.07,
0.651,-0.69,-0.42,1.35,2.44,-0.04,-0.08,
0.655,-0.03,-0.57,1.73,2.44,-0.04,-0.08,
0.657,-0.03,-0.57,1.73,2.51,-0.14,-0.11,
0.658,-0.03,-0.57,1.73,2.58,-0.10,-0.15,
0.659,0.13,-0.92,-0.04,2.58,-0.10,-0.15,
0.666,0.13,-0.92,-0.04,2.65,-0.05,-0.18,
0.667,0.13,-0.92,-0.04,2.69,-0.04,-0.20,
0.667,-0.02,-1.35,-0.47,2.69,-0.04,-0.20,
0.668,-0.02,-1.35,-0.47,2.72,-0.05,-0.22,
0.669,-0.02,-1.35,-0.47,2.75,-0.05,-0.24,
0.67,0.65,-1.55,-0.29,2.75,-0.05,-0.24,
0.671,0.65,-1.55,-0.29,2.76,-0.06,-0.27,
0.674,0.65,-1.55,-0.29,2.77,-0.07,-0.29,
0.675,1.43,-0.94,-0.44,2.77,-0.07,-0.29,
0.676,1.43,-0.94,-0.44,2.77,-0.09,-0.33,
0.677,1.43,-0.94,-0.44,2.76,-0.10,-0.36,
0.679,1.83,-0.37,-0.56,2.76,-0.10,-0.36,
0.679,1.83,-0.37,-0.56,2.76,-0.12,-0.40,
0.682,1.83,-0.37,-0.56,2.75,-0.16,-0.44,
0.684,2.07,-0.25,0.15,2.75,-0.16,-0.44,
0.684,2.07,-0.25,0.15,2.74,-0.25,-0.48,
0.687,2.07,-0.25,0.15,2.73,-0.36,-0.52,
0.69,1.68,-0.11,0.87,2.73,-0.36,-0.52,
0.691,1.68,-0.11,0.87,2.71,-0.50,-0.56,
0.691,1.68,-0.11,0.87,2.65,-0.70,-0.60,
0.694,1.25,-0.18,1.52,2.65,-0.70,-0.60,
0.694,1.25,-0.18,1.52,2.55,-0.97,-0.65,
0.697,1.25,-0.18,1.52,2.38,-1.27,-0.71,
0.699,1.41,-0.71,0.76,2.38,-1.27,-0.71,
0.7,1.41,-0.71,0.76,2.17,-1.57,-0.78,
0.701,1.41,-0.71,0.76,1.93,-1.81,-0.87,
0.704,1.90,-1.30,-1.45,1.93,-1.81,-0.87,
0.706,1.90,-1.30,-1.45,1.67,-1.99,-0.98,
0.707,1.90,-1.30,-1.45,1.42,-2.10,-1.11,
0.709,2.46,-1.64,-3.09,1.42,-2.10,-1.11,
0.71,2.46,-1.64,-3.09,1.19,-2.14,-1.23,
0.711,2.46,-1.64,-3.09,0.99,-2.14,-1.34,
0.713,2.55,-1.65,-3.58,0.99,-2.14,-1.34,
0.714,2.55,-1.65,-3.58,0.82,-2.10,-1.43,
0.717,2.55,-1.65,-3.58,0.69,-2.04,-1.50,
0.729,1.59,-1.32,-3.45,0.69,-2.04,-1.50,
0.731,1.59,-1.32,-3.45,0.58,-1.97,-1.54,
0.731,1.59,-1.32,-3.45,0.49,-1.90,-1.56,
0.732,0.23,-0.77,-3.08,0.49,-1.90,-1.56,
0.732,0.23,-0.77,-3.08,0.43,-1.84,-1.54,
0.734,0.23,-0.77,-3.08,0.37,-1.78,-1.51,
0.735,-1.06,-0.27,-2.74,0.37,-1.78,-1.51,
0.735,-1.06,-0.27,-2.74,0.31,-1.73,-1.46,
0.736,-1.06,-0.27,-2.74,0.27,-1.69,-1.39,
0.738,-2.29,0.15,-2.23,0.27,-1.69,-1.39,
0.739,-2.29,0.15,-2.23,0.23,-1.67,-1.31,
0.739,-2.29,0.15,-2.23,0.18,-1.67,-1.23,
0.74,-3.35,0.43,-1.84,0.18,-1.67,-1.23,
0.742,-3.35,0.43,-1.84,0.14,-1.68,-1.14,
0.742,-3.35,0.43,-1.84,0.09,-1.70,-1.04,
0.745,-3.92,0.63,-1.72,0.09,-1.70,-1.04,
0.746,-3.92,0.63,-1.72,0.04,-1.74,-0.94,
0.747,-3.92,0.63,-1.72,-0.01,-1.79,-0.84,
0.751,-3.80,0.88,-1.64,-0.01,-1.79,-0.84,
0.751,-3.80,0.88,-1.64,-0.06,-1.85,-0.74,
0.752,-3.80,0.88,-1.64,-0.10,-1.91,-0.65,
0.757,-3.40,0.99,-1.73,-0.10,-1.91,-0.65,
0.758,-3.40,0.99,-1.73,-0.13,-1.97,-0.57,
0.759,-3.40,0.99,-1.73,-0.16,-2.03,-0.49,
0.759,-2.83,1.11,-1.91,-0.16,-2.03,-0.49,
0.76,-2.83,1.11,-1.91,-0.18,-2.08,-0.42,
0.762,-2.83,1.11,-1.91,-0.19,-2.12,-0.36,
0.766,-2.22,1.16,-2.07,-0.19,-2.12,-0.36,
0.767,-2.22,1.16,-2.07,-0.20,-2.16,-0.30,
0.769,-2.22,1.16,-2.07,-0.20,-2.20,-0.25,
0.77,-2.22,1.16,-2.07,-0.20,-2.23,-0.21,
0.771,-1.63,1.09,-2.32,-0.20,-2.23,-0.21,
0.776,-1.11,0.89,-2.71,-0.20,-2.23,-0.21,
0.777,-1.11,0.89,-2.71,-0.20,-2.26,-0.16,
0.777,-1.11,0.89,-2.71,-0.20,-2.30,-0.12,
0.778,-1.11,0.89,-2.71,-0.22,-2.34,-0.07,
0.782,-0.97,0.65,-3.81,-0.22,-2.34,-0.07,
0.783,-0.97,0.65,-3.81,-0.25,-2.37,-0.03,
0.783,-0.97,0.65,-3.81,-0.31,-2.37,0.02,
0.786,-1.11,0.50,-5.34,-0.31,-2.37,0.02,
0.786,-1.11,0.50,-5.34,-0.38,-2.37,0.06,
0.787,-1.11,0.50,-5.34,-0.48,-2.37,0.11,
0.791,-1.47,0.42,-6.18,-0.48,-2.37,0.11,
0.793,-1.47,0.42,-6.18,-0.59,-2.39,0.15,
0.793,-1.47,0.42,-6.18,-0.72,-2.41,0.20,
0.794,-2.05,0.59,-6.40,-0.72,-2.41,0.20,
0.795,-2.05,0.59,-6.40,-0.85,-2.44,0.25,
0.798,-2.05,0.59,-6.40,-0.98,-2.47,0.30,
0.801,-1.97,0.88,-6.38,-0.98,-2.47,0.30,
0.802,-1.97,0.88,-6.38,-1.11,-2.47,0.33,
0.802,-1.97,0.88,-6.38,-1.22,-2.45,0.35,
0.807,-1.10,1.38,-5.99,-1.22,-2.45,0.35,
0.808,-1.10,1.38,-5.99,-1.32,-2.44,0.36,
0.809,-1.10,1.38,-5.99,-1.41,-2.44,0.37,
0.809,-0.87,1.37,-4.94,-1.41,-2.44,0.37,
0.81,-0.87,1.37,-4.94,-1.48,-2.45,0.38,
0.813,-0.87,1.37,-4.94,-1.53,-2.48,0.40,
0.817,-0.78,1.12,-3.58,-1.53,-2.48,0.40,
0.818,-0.78,1.12,-3.58,-1.56,-2.53,0.43,
0.818,-0.78,1.12,-3.58,-1.58,-2.60,0.46,
0.826,-0.43,0.77,-2.34,-1.58,-2.60,0.46,
0.827,-0.43,0.77,-2.34,-1.58,-2.68,0.49,
0.827,-0.43,0.77,-2.34,-1.57,-2.77,0.53,
0.828,0.19,0.37,-1.47,-1.57,-2.77,0.53,
0.829,0.19,0.37,-1.47,-1.54,-2.86,0.56,
0.834,0.19,0.37,-1.47,-1.51,-2.94,0.59,
0.835,0.83,0.01,-0.84,-1.51,-2.94,0.59,
0.835,0.83,0.01,-0.84,-1.46,-3.03,0.61,
0.836,0.83,0.01,-0.84,-1.41,-3.12,0.64,
0.836,1.23,-0.16,-0.59,-1.41,-3.12,0.64,
0.837,1.23,-0.16,-0.59,-1.36,-3.20,0.66,
0.839,1.23,-0.16,-0.59,-1.31,-3.28,0.68,
0.84,1.19,-0.15,-0.58,-1.31,-3.28,0.68,
0.84,1.19,-0.15,-0.58,-1.27,-3.36,0.70,
0.842,1.19,-0.15,-0.58,-1.23,-3.43,0.73,
0.845,0.80,-0.08,-0.77,-1.23,-3.43,0.73,
0.846,0.80,-0.08,-0.77,-1.20,-3.49,0.75,
0.847,0.80,-0.08,-0.77,-1.17,-3.54,0.77,
0.85,0.26,-0.06,-0.89,-1.17,-3.54,0.77,
0.85,0.26,-0.06,-0.89,-1.15,-3.58,0.80,
0.853,0.26,-0.06,-0.89,-1.14,-3.61,0.82,
0.854,-0.16,-0.15,-1.04,-1.14,-3.61,0.82,
0.855,-0.16,-0.15,-1.04,-1.13,-3.64,0.84,
0.858,-0.16,-0.15,-1.04,-1.13,-3.67,0.86,
0.862,-0.30,-0.31,-1.55,-1.13,-3.67,0.86,
0.863,-0.30,-0.31,-1.55,-1.14,-3.68,0.88,
0.863,-0.30,-0.31,-1.55,-1.14,-3.67,0.89,
0.866,-0.27,-0.40,-2.28,-1.14,-3.67,0.89,
0.866,-0.27,-0.40,-2.28,-1.16,-3.65,0.91,
0.868,-0.27,-0.40,-2.28,-1.17,-3.61,0.92,
0.869,-0.07,-0.55,-2.72,-1.17,-3.61,0.92,
0.87,-0.07,-0.55,-2.72,-1.19,-3.56,0.93,
0.872,-0.07,-0.55,-2.72,-1.22,-3.51,0.94,
0.875,-0.03,-0.60,-4.06,-1.22,-3.51,0.94,
0.876,-0.03,-0.60,-4.06,-1.27,-3.33,0.97,
0.877,-0.03,-0.60,-4.06,-1.40,-2.90,1.01,
0.882,0.40,-0.33,-7.70,-1.40,-2.90,1.01,
0.882,0.40,-0.33,-7.70,-1.58,-2.40,1.09,
0.882,0.40,-0.33,-7.70,-1.75,-2.08,1.18,
0.884,1.10,-0.30,-4.67,-1.75,-2.08,1.18,
0.884,1.10,-0.30,-4.67,-1.87,-1.93,1.26,
0.887,1.10,-0.30,-4.67,-1.94,-1.87,1.32,
0.892,0.80,-0.57,-1.45,-1.94,-1.87,1.32,
0.892,0.80,-0.57,-1.45,-1.94,-1.87,1.37,
0.893,0.80,-0.57,-1.45,-1.90,-1.92,1.41,
0.897,0.11,-0.76,0.67,-1.90,-1.92,1.41,
0.898,0.11,-0.76,0.67,-1.83,-2.00,1.46,
0.898,0.11,-0.76,0.67,-1.74,-2.11,1.52,
0.902,-0.44,-0.62,1.80,-1.74,-2.11,1.52,
0.902,-0.44,-0.62,1.80,-1.65,-2.23,1.59,
0.903,-0.44,-0.62,1.80,-1.54,-2.39,1.66,
0.906,-0.68,-0.46,2.89,-1.54,-2.39,1.66,
0.907,-0.68,-0.46,2.89,-1.41,-2.57,1.71,
0.907,-0.68,-0.46,2.89,-1.27,-2.75,1.76,
0.911,-0.30,-0.49,3.27,-1.27,-2.75,1.76,
0.914,-0.30,-0.49,3.27,-1.12,-2.91,1.79,
0.915,-0.30,-0.49,3.27,-0.97,-3.06,1.82,
0.915,0.64,-0.73,2.86,-0.97,-3.06,1.82,
0.916,0.64,-0.73,2.86,-0.83,-3.19,1.84,
0.918,0.64,-0.73,2.86,-0.69,-3.30,1.86,
0.924,1.60,-0.99,2.19,-0.69,-3.30,1.86,
0.927,2.16,-1.21,1.48,-0.69,-3.30,1.86,
0.93,2.10,-1.29,0.89,-0.69,-3.30,1.86,
0.931,2.10,-1.29,0.89,-0.56,-3.40,1.88,
0.933,2.10,-1.29,0.89,-0.43,-3.46,1.91,
0.933,2.10,-1.29,0.89,-0.31,-3.48,1.95,
0.934,2.10,-1.29,0.89,-0.19,-3.44,2.00,
0.935,2.10,-1.29,0.89,-0.07,-3.34,2.07,
0.935,2.10,-1.29,0.89,0.04,-3.22,2.14,
0.935,1.36,-0.90,0.77,0.04,-3.22,2.14,
0.936,1.36,-0.90,0.77,0.16,-3.11,2.21,
0.94,1.36,-0.90,0.77,0.26,-3.03,2.26,
0.941,1.07,-0.53,0.77,0.26,-3.03,2.26,
0.941,1.07,-0.53,0.77,0.35,-2.98,2.30,
0.942,1.07,-0.53,0.77,0.43,-2.94,2.31,
0.945,1.49,-0.45,0.70,0.43,-2.94,2.31,
0.946,1.49,-0.45,0.70,0.49,-2.91,2.31,
0.947,1.49,-0.45,0.70,0.53,-2.90,2.28,
0.951,1.69,-0.59,0.58,0.53,-2.90,2.28,
0.951,1.69,-0.59,0.58,0.55,-2.90,2.24,
0.955,1.69,-0.59,0.58,0.55,-2.91,2.19,
0.956,1.48,-0.81,0.60,0.55,-2.91,2.19,
0.956,1.48,-0.81,0.60,0.54,-2.94,2.14,
0.957,1.48,-0.81,0.60,0.52,-2.97,2.08,
0.96,1.00,-1.03,0.80,0.52,-2.97,2.08,
0.961,1.00,-1.03,0.80,0.50,-3.02,2.04,
0.962,1.00,-1.03,0.80,0.48,-3.07,2.00,
0.965,0.53,-1.29,0.95,0.48,-3.07,2.00,
0.965,0.53,-1.29,0.95,0.47,-3.11,1.97,
0.968,0.53,-1.29,0.95,0.47,-3.15,1.95,
0.971,0.40,-1.50,0.70,0.47,-3.15,1.95,
0.974,0.40,-1.50,0.70,0.48,-3.17,1.94,
0.974,0.40,-1.50,0.70,0.51,-3.17,1.93,
0.977,0.55,-1.64,0.30,0.51,-3.17,1.93,
0.977,0.55,-1.64,0.30,0.55,-3.15,1.92,
0.978,0.55,-1.64,0.30,0.59,-3.12,1.92,
0.982,0.57,-1.69,-0.11,0.59,-3.12,1.92,
0.983,0.57,-1.69,-0.11,0.64,-3.07,1.92,
0.984,0.57,-1.69,-0.11,0.70,-3.01,1.93,
0.986,0.57,-1.69,-0.11,0.76,-2.95,1.94,
0.987,0.38,-1.74,-0.26,0.76,-2.95,1.94,
0.988,0.38,-1.74,-0.26,0.83,-2.89,1.95,
0.992,0.05,-1.80,-0.09,0.83,-2.89,1.95,
0.994,0.05,-1.80,-0.09,0.89,-2.85,1.97,
0.995,0.05,-1.80,-0.09,0.95,-2.81,1.98,
1.001,0.05,-1.80,-0.09,1.02,-2.78,2.00,
1.002,-0.36,-1.88,0.20,1.02,-2.78,2.00,
1.003,-0.36,-1.88,0.20,1.07,-2.75,2.02,
1.003,-0.36,-1.88,0.20,1.13,-2.74,2.04,
1.004,-0.87,-1.95,0.54,1.13,-2.74,2.04,
1.004,-0.87,-1.95,0.54,1.19,-2.74,2.06,
1.005,-1.35,-2.07,0.92,1.19,-2.74,2.06,
1.006,-1.35,-2.07,0.92,1.25,-2.74,2.08,
1.007,-1.35,-2.07,0.92,1.31,-2.76,2.10,
1.01,-1.75,-2.18,1.18,1.31,-2.76,2.10,
1.011,-1.75,-2.18,1.18,1.38,-2.79,2.12,
1.013,-1.75,-2.18,1.18,1.44,-2.82,2.13,
1.015,-1.88,-2.25,1.33,1.44,-2.82,2.13,
1.015,-1.88,-2.25,1.33,1.51,-2.85,2.15,
1.018,-1.88,-2.25,1.33,1.59,-2.89,2.16,
1.024,-1.62,-2.31,1.30,1.59,-2.89,2.16,
1.025,-1.62,-2.31,1.30,1.66,-2.93,2.16,
1.026,-1.62,-2.31,1.30,1.74,-2.97,2.17,
1.026,-0.83,-2.42,0.87,1.74,-2.97,2.17,
1.026,-0.83,-2.42,0.87,1.80,-2.99,2.16,
1.027,-0.83,-2.42,0.87,1.86,-3.00,2.15,
1.032,-0.06,-2.42,-0.05,1.86,-3.00,2.15,
1.032,-0.06,-2.42,-0.05,1.91,-2.99,2.13,
1.033,-0.06,-2.42,-0.05,1.94,-2.97,2.11,
1.036,0.39,-2.30,-1.12,1.94,-2.97,2.11,
1.037,0.39,-2.30,-1.12,1.96,-2.93,2.09,
1.044,0.39,-2.30,-1.12,1.95,-2.88,2.07,
1.046,0.57,-2.05,-2.01,1.95,-2.88,2.07,
1.047,0.55,-1.71,-2.69,1.95,-2.88,2.07,
1.049,0.55,-1.71,-2.69,1.93,-2.81,2.04,
1.051,0.55,-1.71,-2.69,1.89,-2.74,2.02,
1.052,0.55,-1.71,-2.69,1.83,-2.66,1.99,
1.053,0.55,-1.71,-2.69,1.75,-2.57,1.97,
1.053,0.40,-1.31,-3.20,1.75,-2.57,1.97,
1.055,0.40,-1.31,-3.20,1.65,-2.48,1.95,
1.057,0.23,-0.92,-3.52,1.65,-2.48,1.95,
1.06,0.23,-0.92,-3.52,1.54,-2.38,1.94,
1.062,0.23,-0.92,-3.52,1.41,-2.27,1.93,
1.062,0.23,-0.92,-3.52,1.29,-2.17,1.93,
1.063,-0.04,-0.54,-3.55,1.29,-2.17,1.93,
1.064,-0.04,-0.54,-3.55,1.17,-2.06,1.93,
1.065,-0.04,-0.54,-3.55,1.04,-1.95,1.94,
1.065,-0.29,-0.28,-3.27,1.04,-1.95,1.94,
1.066,-0.29,-0.28,-3.27,0.92,-1.84,1.94,
1.069,-0.29,-0.28,-3.27,0.82,-1.74,1.95,
1.07,-0.49,-0.21,-2.88,0.82,-1.74,1.95,
1.074,-0.49,-0.21,-2.88,0.72,-1.63,1.97,
1.075,-0.49,-0.21,-2.88,0.63,-1.53,1.99,
1.076,-0.75,-0.35,-2.38,0.63,-1.53,1.99,
1.077,-0.75,-0.35,-2.38,0.56,-1.42,2.01,
1.077,-0.75,-0.35,-2.38,0.50,-1.32,2.03,
1.08,-1.11,-0.60,-1.68,0.50,-1.32,2.03,
1.081,-1.11,-0.60,-1.68,0.45,-1.23,2.06,
1.083,-1.11,-0.60,-1.68,0.41,-1.15,2.09,
1.085,-1.45,-0.89,-0.71,0.41,-1.15,2.09,
1.086,-1.45,-0.89,-0.71,0.39,-1.08,2.13,
1.089,-1.45,-0.89,-0.71,0.37,-1.02,2.16,
1.09,-1.67,-1.23,0.35,0.37,-1.02,2.16,
1.091,-1.67,-1.23,0.35,0.38,-0.98,2.20,
1.094,-1.67,-1.23,0.35,0.39,-0.96,2.24,
1.096,-1.70,-1.57,1.49,0.39,-0.96,2.24,
1.097,-1.70,-1.57,1.49,0.41,-0.97,2.28,
1.098,-1.70,-1.57,1.49,0.45,-0.99,2.31,
1.101,-1.65,-1.80,2.55,0.45,-0.99,2.31,
1.101,-1.65,-1.80,2.55,0.49,-1.03,2.35,
1.104,-1.65,-1.80,2.55,0.54,-1.09,2.40,
1.105,-1.61,-1.91,3.35,0.54,-1.09,2.40,
1.106,-1.61,-1.91,3.35,0.60,-1.16,2.45,
1.108,-1.61,-1.91,3.35,0.66,-1.23,2.50,
1.11,-1.51,-1.93,3.74,0.66,-1.23,2.50,
1.11,-1.51,-1.93,3.74,0.72,-1.30,2.55,
1.113,-1.51,-1.93,3.74,0.79,-1.36,2.61,
1.115,-1.28,-1.94,3.50,0.79,-1.36,2.61,
1.116,-1.28,-1.94,3.50,0.86,-1.41,2.66,
1.118,-1.28,-1.94,3.50,0.93,-1.43,2.71,
1.124,-0.96,-1.90,2.74,0.93,-1.43,2.71,
1.125,-0.96,-1.90,2.74,0.99,-1.42,2.75,
1.126,-0.96,-1.90,2.74,1.04,-1.40,2.78,
1.126,-0.62,-1.83,1.87,1.04,-1.40,2.78,
1.127,-0.62,-1.83,1.87,1.09,-1.34,2.80,
1.128,-0.62,-1.83,1.87,1.12,-1.27,2.82,
1.132,-0.25,-1.68,1.22,1.12,-1.27,2.82,
1.133,-0.25,-1.68,1.22,1.15,-1.19,2.82,
1.133,-0.25,-1.68,1.22,1.16,-1.11,2.82,
1.136,0.19,-1.48,0.74,1.16,-1.11,2.82,
1.137,0.19,-1.48,0.74,1.16,-1.03,2.81,
1.138,0.19,-1.48,0.74,1.14,-0.94,2.79,
1.142,0.68,-1.21,0.35,1.14,-0.94,2.79,
1.143,0.68,-1.21,0.35,1.12,-0.87,2.77,
1.144,0.68,-1.21,0.35,1.08,-0.78,2.74,
1.149,1.23,-0.90,-0.05,1.08,-0.78,2.74,
1.15,1.23,-0.90,-0.05,1.03,-0.70,2.70,
1.15,1.23,-0.90,-0.05,0.97,-0.61,2.66,
1.151,1.72,-0.52,-0.46,0.97,-0.61,2.66,
1.151,1.72,-0.52,-0.46,0.91,-0.52,2.60,
1.156,1.72,-0.52,-0.46,0.83,-0.44,2.55,
1.157,2.02,-0.13,-0.70,0.83,-0.44,2.55,
1.158,2.02,-0.13,-0.70,0.75,-0.35,2.49,
1.158,2.02,-0.13,-0.70,0.67,-0.28,2.43,
1.161,2.10,0.26,-0.81,0.67,-0.28,2.43,
1.17,2.10,0.26,-0.81,0.59,-0.20,2.37,
1.171,2.10,0.26,-0.81,0.52,-0.14,2.32,
1.171,1.99,0.57,-0.78,0.52,-0.14,2.32,
1.172,1.99,0.57,-0.78,0.44,-0.07,2.27,
1.173,1.99,0.57,-0.78,0.37,-0.02,2.22,
1.174,1.82,0.75,-0.66,0.37,-0.02,2.22,
1.174,1.82,0.75,-0.66,0.31,0.03,2.18,
1.177,1.67,0.79,-0.38,0.31,0.03,2.18,
1.178,1.67,0.79,-0.38,0.25,0.07,2.14,
1.178,1.67,0.79,-0.38,0.18,0.09,2.10,
1.179,1.67,0.79,-0.38,0.13,0.09,2.07,
1.181,1.62,0.73,0.04,0.13,0.09,2.07,
1.183,1.62,0.73,0.04,0.07,0.08,2.04,
1.183,1.62,0.73,0.04,0.02,0.05,2.01,
1.186,1.57,0.61,0.47,0.02,0.05,2.01,
1.187,1.57,0.61,0.47,-0.02,0.01,1.98,
1.19,1.57,0.61,0.47,-0.06,-0.04,1.94,
1.191,1.44,0.48,0.84,-0.06,-0.04,1.94,
1.191,1.44,0.48,0.84,-0.10,-0.09,1.91,
1.193,1.44,0.48,0.84,-0.13,-0.15,1.88,
1.196,1.25,0.39,1.14,-0.13,-0.15,1.88,
1.196,1.25,0.39,1.14,-0.15,-0.21,1.85,
1.198,1.25,0.39,1.14,-0.16,-0.26,1.82,
1.202,0.99,0.33,1.47,-0.16,-0.26,1.82,
1.202,0.99,0.33,1.47,-0.17,-0.33,1.80,
1.207,0.99,0.33,1.47,-0.16,-0.40,1.79,
1.208,0.73,0.31,1.88,-0.16,-0.40,1.79,
1.208,0.73,0.31,1.88,-0.16,-0.47,1.78,
1.209,0.73,0.31,1.88,-0.14,-0.55,1.77,
1.211,0.46,0.30,2.32,-0.14,-0.55,1.77,
1.211,0.46,0.30,2.32,-0.12,-0.64,1.77,
1.213,0.46,0.30,2.32,-0.09,-0.73,1.78,
1.215,0.19,0.25,2.72,-0.09,-0.73,1.78,
1.216,0.19,0.25,2.72,-0.06,-0.82,1.79,
1.218,0.19,0.25,2.72,-0.02,-0.91,1.80,
1.221,-0.02,0.14,3.08,-0.02,-0.91,1.80,
1.221,-0.02,0.14,3.08,0.02,-1.01,1.81,
1.223,-0.02,0.14,3.08,0.06,-1.11,1.82,
1.228,-0.19,-0.04,3.26,0.06,-1.11,1.82,
1.229,-0.19,-0.04,3.26,0.11,-1.21,1.84,
1.229,-0.19,-0.04,3.26,0.15,-1.30,1.86,
1.232,-0.21,-0.14,3.23,0.15,-1.30,1.86,
1.233,-0.21,-0.14,3.23,0.20,-1.38,1.87,
1.233,-0.21,-0.14,3.23,0.24,-1.45,1.89,
1.236,-0.09,-0.17,3.04,0.24,-1.45,1.89,
1.237,-0.09,-0.17,3.04,0.28,-1.51,1.91,
1.245,-0.09,-0.17,3.04,0.32,-1.55,1.92,
1.246,0.11,-0.20,2.63,0.32,-1.55,1.92,
1.246,0.11,-0.20,2.63,0.35,-1.57,1.94,
1.247,0.11,-0.20,2.63,0.38,-1.56,1.96,
1.247,0.24,-0.19,2.09,0.38,-1.56,1.96,
1.248,0.24,-0.19,2.09,0.40,-1.54,1.97,
1.249,0.24,-0.19,2.09,0.42,-1.50,1.99,
1.253,0.37,-0.19,1.66,0.42,-1.50,1.99,
1.253,0.37,-0.19,1.66,0.43,-1.45,2.00,
1.257,0.55,-0.23,1.35,0.43,-1.45,2.00,
1.258,0.55,-0.23,1.35,0.45,-1.38,2.02,
1.259,0.55,-0.23,1.35,0.45,-1.31,2.02,
1.259,0.55,-0.23,1.35,0.46,-1.24,2.03,
1.261,0.76,-0.23,1.18,0.46,-1.24,2.03,
1.262,0.76,-0.23,1.18,0.46,-1.15,2.03,
1.264,0.76,-0.23,1.18,0.46,-1.07,2.03,
1.266,0.76,-0.23,1.18,0.46,-0.98,2.03,
1.267,1.02,-0.20,1.08,0.46,-0.98,2.03,
1.269,1.02,-0.20,1.08,0.46,-0.89,2.02,
1.272,1.29,-0.15,0.95,0.46,-0.89,2.02,
1.273,1.29,-0.15,0.95,0.46,-0.80,2.00,
1.273,1.29,-0.15,0.95,0.45,-0.71,1.98,
1.277,1.57,-0.08,0.83,0.45,-0.71,1.98,
1.277,1.57,-0.08,0.83,0.45,-0.62,1.95,
1.28,1.57,-0.08,0.83,0.45,-0.53,1.92,
1.28,1.77,0.02,0.79,0.45,-0.53,1.92,
1.281,1.77,0.02,0.79,0.45,-0.46,1.88,
1.286,1.77,0.02,0.79,0.45,-0.38,1.85,
1.287,1.85,0.09,0.82,0.45,-0.38,1.85,
1.288,1.85,0.09,0.82,0.45,-0.31,1.81,
1.288,1.85,0.09,0.82,0.45,-0.24,1.77,
1.293,1.72,0.10,0.88,0.45,-0.24,1.77,
1.294,1.72,0.10,0.88,0.45,-0.17,1.74,
1.295,1.72,0.10,0.88,0.46,-0.12,1.71,
1.296,1.47,0.06,1.00,0.46,-0.12,1.71,
1.297,1.47,0.06,1.00,0.47,-0.07,1.68,
1.298,1.47,0.06,1.00,0.47,-0.03,1.65,
1.302,1.12,-0.04,1.08,0.47,-0.03,1.65,
1.303,1.12,-0.04,1.08,0.48,0.00,1.62,
1.304,1.12,-0.04,1.08,0.48,0.02,1.60,
1.308,0.72,-0.10,1.13,0.48,0.02,1.60,
1.31,0.72,-0.10,1.13,0.48,0.03,1.58,
1.31,0.72,-0.10,1.13,0.48,0.03,1.56,
1.311,0.28,-0.11,1.15,0.48,0.03,1.56,
1.312,0.28,-0.11,1.15,0.48,0.02,1.55,
1.313,0.28,-0.11,1.15,0.48,-0.01,1.55,
1.316,-0.08,-0.09,1.14,0.48,-0.01,1.55,
1.317,-0.08,-0.09,1.14,0.47,-0.04,1.55,
1.318,-0.08,-0.09,1.14,0.47,-0.09,1.56,
1.325,-0.38,-0.15,1.21,0.47,-0.09,1.56,
1.327,-0.38,-0.15,1.21,0.47,-0.14,1.58,
1.327,-0.38,-0.15,1.21,0.46,-0.20,1.60,
1.328,-0.58,-0.26,1.36,0.46,-0.20,1.60,
1.329,-0.58,-0.26,1.36,0.46,-0.27,1.63,
1.335,-0.58,-0.26,1.36,0.45,-0.35,1.66,
1.335,-0.68,-0.43,1.56,0.45,-0.35,1.66,
1.336,-0.68,-0.43,1.56,0.45,-0.43,1.70,
1.338,-0.68,-0.43,1.56,0.45,-0.51,1.73,
1.339,-0.71,-0.57,1.77,0.45,-0.51,1.73,
1.339,-0.71,-0.57,1.77,0.45,-0.60,1.76,
1.339,-0.71,-0.57,1.77,0.46,-0.69,1.80,
1.342,-0.67,-0.68,2.02,0.46,-0.69,1.80,
1.343,-0.67,-0.68,2.02,0.46,-0.78,1.83,
1.343,-0.67,-0.68,2.02,0.48,-0.86,1.86,
1.347,-0.53,-0.72,2.25,0.48,-0.86,1.86,
1.348,-0.53,-0.72,2.25,0.49,-0.95,1.89,
1.349,-0.53,-0.72,2.25,0.51,-1.03,1.92,
1.351,-0.35,-0.72,2.46,0.51,-1.03,1.92,
1.352,-0.35,-0.72,2.46,0.54,-1.11,1.94,
1.355,-0.35,-0.72,2.46,0.57,-1.19,1.97,
1.356,-0.23,-0.69,2.76,0.57,-1.19,1.97,
1.36,-0.23,-0.69,2.76,0.61,-1.26,2.00,
1.36,-0.23,-0.69,2.76,0.65,-1.33,2.03,
1.361,-0.13,-0.68,3.13,0.65,-1.33,2.03,
1.361,-0.13,-0.68,3.13,0.70,-1.40,2.05,
1.365,-0.13,-0.68,3.13,0.76,-1.47,2.08,
1.366,-0.06,-0.74,3.46,0.76,-1.47,2.08,
1.367,-0.06,-0.74,3.46,0.82,-1.54,2.11,
1.368,-0.06,-0.74,3.46,0.89,-1.60,2.13,
1.375,0.09,-0.85,3.66,0.89,-1.60,2.13,
1.375,0.09,-0.85,3.66,0.96,-1.67,2.15,
1.376,0.09,-0.85,3.66,1.03,-1.73,2.17,
1.378,0.25,-0.93,3.78,1.03,-1.73,2.17,
1.379,0.25,-0.93,3.78,1.10,-1.79,2.20,
1.379,0.25,-0.93,3.78,1.18,-1.84,2.21,
1.382,0.48,-0.93,3.84,1.18,-1.84,2.21,
1.383,0.48,-0.93,3.84,1.26,-1.89,2.23,
1.384,0.48,-0.93,3.84,1.34,-1.94,2.23,
1.387,0.79,-0.91,3.76,1.34,-1.94,2.23,
1.39,0.79,-0.91,3.76,1.43,-1.99,2.24,
1.391,0.79,-0.91,3.76,1.51,-2.02,2.24,
1.392,1.16,-0.88,3.43,1.51,-2.02,2.24,
1.392,1.16,-0.88,3.43,1.58,-2.05,2.23,
1.393,1.16,-0.88,3.43,1.65,-2.07,2.21,
1.397,1.44,-0.82,2.99,1.65,-2.07,2.21,
1.398,1.44,-0.82,2.99,1.72,-2.09,2.19,
1.398,1.44,-0.82,2.99,1.79,-2.09,2.17,
1.403,1.67,-0.77,2.51,1.79,-2.09,2.17,
1.403,1.67,-0.77,2.51,1.85,-2.09,2.15,
1.404,1.67,-0.77,2.51,1.90,-2.09,2.12,
1.408,1.89,-0.72,2.04,1.90,-2.09,2.12,
1.409,1.89,-0.72,2.04,1.95,-2.08,2.09,
1.409,1.89,-0.72,2.04,1.99,-2.06,2.06,
1.412,2.12,-0.63,1.57,1.99,-2.06,2.06,
1.413,2.12,-0.63,1.57,2.02,-2.04,2.03,
1.413,2.12,-0.63,1.57,2.05,-2.01,2.00,
1.418,2.35,-0.52,1.17,2.05,-2.01,2.00,
1.418,2.35,-0.52,1.17,2.08,-1.98,1.96,
1.419,2.35,-0.52,1.17,2.09,-1.94,1.92,
1.423,2.53,-0.35,0.82,2.09,-1.94,1.92,
1.424,2.53,-0.35,0.82,2.11,-1.90,1.88,
1.425,2.53,-0.35,0.82,2.11,-1.86,1.84,
1.427,2.62,-0.22,0.50,2.11,-1.86,1.84,
1.428,2.62,-0.22,0.50,2.12,-1.81,1.80,
1.428,2.62,-0.22,0.50,2.12,-1.77,1.77,
1.432,2.66,-0.13,0.21,2.12,-1.77,1.77,
1.433,2.66,-0.13,0.21,2.11,-1.72,1.73,
1.435,2.66,-0.13,0.21,2.11,-1.67,1.70,
1.437,2.67,-0.04,-0.01,2.11,-1.67,1.70,
1.443,2.67,-0.04,-0.01,2.10,-1.62,1.67,
1.445,2.78,-0.00,-0.19,2.10,-1.62,1.67,
1.446,2.78,-0.00,-0.19,2.08,-1.57,1.64,
1.447,2.78,-0.00,-0.19,2.07,-1.52,1.61,
1.448,2.78,-0.00,-0.19,2.05,-1.47,1.58,
1.45,3.03,0.02,-0.37,2.05,-1.47,1.58,
1.45,3.03,0.02,-0.37,2.02,-1.41,1.54,
1.451,3.03,0.02,-0.37,2.00,-1.36,1.51,
1.452,3.27,0.08,-0.59,2.00,-1.36,1.51,
1.452,3.27,0.08,-0.59,1.97,-1.30,1.47,
1.455,3.27,0.08,-0.59,1.94,-1.25,1.43,
1.457,3.41,0.21,-0.78,1.94,-1.25,1.43,
1.458,3.41,0.21,-0.78,1.91,-1.19,1.40,
1.458,3.41,0.21,-0.78,1.88,-1.14,1.36,
1.462,3.38,0.36,-0.97,1.88,-1.14,1.36,
1.463,3.38,0.36,-0.97,1.84,-1.08,1.33,
1.465,3.38,0.36,-0.97,1.80,-1.02,1.30,
1.466,3.23,0.48,-1.21,1.80,-1.02,1.30,
1.467,3.23,0.48,-1.21,1.76,-0.96,1.27,
1.468,3.23,0.48,-1.21,1.72,-0.90,1.24,
1.472,3.07,0.58,-1.45,1.72,-0.90,1.24,
1.473,3.07,0.58,-1.45,1.67,-0.83,1.22,
1.474,3.07,0.58,-1.45,1.63,-0.77,1.20,
1.476,2.94,0.68,-1.59,1.63,-0.77,1.20,
1.477,2.94,0.68,-1.59,1.59,-0.71,1.17,
1.478,2.94,0.68,-1.59,1.54,-0.66,1.15,
1.481,2.87,0.71,-1.69,1.54,-0.66,1.15,
1.482,2.87,0.71,-1.69,1.49,-0.60,1.14,
1.484,2.87,0.71,-1.69,1.45,-0.55,1.11,
1.487,2.78,0.70,-1.75,1.45,-0.55,1.11,
1.488,2.78,0.70,-1.75,1.41,-0.50,1.09,
1.49,2.78,0.70,-1.75,1.36,-0.46,1.07,
1.491,2.60,0.66,-1.83,1.36,-0.46,1.07,
1.492,2.60,0.66,-1.83,1.31,-0.41,1.05,
1.493,2.60,0.66,-1.83,1.27,-0.38,1.03,
1.5,2.33,0.62,-1.89,1.27,-0.38,1.03,
1.5,2.33,0.62,-1.89,1.22,-0.34,1.01,
1.501,2.33,0.62,-1.89,1.18,-0.31,0.99,
1.501,2.05,0.58,-1.93,1.18,-0.31,0.99,
1.502,2.05,0.58,-1.93,1.13,-0.28,0.97,
1.504,2.05,0.58,-1.93,1.09,-0.26,0.96,
1.506,1.79,0.58,-1.93,1.09,-0.26,0.96,
1.507,1.79,0.58,-1.93,1.05,-0.23,0.95,
1.509,1.79,0.58,-1.93,1.02,-0.21,0.94,
1.511,1.52,0.62,-1.82,1.02,-0.21,0.94,
1.512,1.52,0.62,-1.82,0.99,-0.19,0.93,
1.514,1.52,0.62,-1.82,0.96,-0.17,0.93,
1.516,1.25,0.66,-1.61,0.96,-0.17,0.93,
1.517,1.25,0.66,-1.61,0.95,-0.16,0.93,
1.518,1.25,0.66,-1.61,0.93,-0.15,0.93,
1.522,1.02,0.67,-1.34,0.93,-0.15,0.93,
1.522,1.02,0.67,-1.34,0.92,-0.15,0.93,
1.525,1.02,0.67,-1.34,0.92,-0.16,0.93,
1.526,0.92,0.66,-1.04,0.92,-0.16,0.93,
1.527,0.92,0.66,-1.04,0.92,-0.18,0.93,
1.529,0.92,0.66,-1.04,0.92,-0.21,0.93,
1.532,0.93,0.63,-0.75,0.92,-0.21,0.93,
1.532,0.93,0.63,-0.75,0.92,-0.25,0.92,
1.533,0.93,0.63,-0.75,0.92,-0.30,0.91,
1.537,0.97,0.58,-0.51,0.92,-0.30,0.91,
1.54,0.97,0.58,-0.51,0.93,-0.35,0.90,
1.541,0.97,0.58,-0.51,0.94,-0.40,0.88,
1.541,1.02,0.48,-0.24,0.94,-0.40,0.88,
1.542,1.02,0.48,-0.24,0.95,-0.46,0.87,
1.544,1.02,0.48,-0.24,0.96,-0.52,0.85,
1.546,1.07,0.32,0.02,0.96,-0.52,0.85,
1.547,1.07,0.32,0.02,0.98,-0.58,0.84,
1.55,1.07,0.32,0.02,1.00,-0.64,0.82,
1.552,1.11,0.09,0.23,1.00,-0.64,0.82,
1.552,1.11,0.09,0.23,1.02,-0.70,0.81,
1.555,1.11,0.09,0.23,1.04,-0.76,0.80,
1.556,1.11,0.09,0.23,1.07,-0.81,0.79,
1.558,1.07,-0.13,0.34,1.07,-0.81,0.79,
1.558,1.07,-0.13,0.34,1.09,-0.87,0.79,
1.562,0.95,-0.32,0.29,1.09,-0.87,0.79,
1.563,0.95,-0.32,0.29,1.12,-0.91,0.79,
1.563,0.95,-0.32,0.29,1.14,-0.96,0.79,
1.567,0.87,-0.45,0.03,1.14,-0.96,0.79,
1.567,0.87,-0.45,0.03,1.16,-0.99,0.79,
1.569,0.87,-0.45,0.03,1.18,-1.02,0.79,
1.572,0.83,-0.54,-0.33,1.18,-1.02,0.79,
1.572,0.83,-0.54,-0.33,1.19,-1.04,0.79,
1.574,0.83,-0.54,-0.33,1.20,-1.06,0.79,
1.577,0.87,-0.65,-0.72,1.20,-1.06,0.79,
1.578,0.87,-0.65,-0.72,1.21,-1.06,0.79,
1.578,0.87,-0.65,-0.72,1.21,-1.06,0.79,
1.582,0.91,-0.69,-1.08,1.21,-1.06,0.79,
1.582,0.91,-0.69,-1.08,1.21,-1.06,0.80,
1.585,0.91,-0.69,-1.08,1.21,-1.05,0.80,
1.587,0.97,-0.70,-1.35,1.21,-1.05,0.80,
1.588,0.97,-0.70,-1.35,1.20,-1.03,0.80,
1.589,0.97,-0.70,-1.35,1.19,-1.02,0.80,
1.593,1.04,-0.68,-1.62,1.19,-1.02,0.80,
1.594,1.04,-0.68,-1.62,1.18,-1.00,0.80,
1.594,1.04,-0.68,-1.62,1.16,-0.98,0.80,
1.599,1.14,-0.63,-1.90,1.16,-0.98,0.80,
1.6,1.14,-0.63,-1.90,1.14,-0.95,0.79,
1.601,1.14,-0.63,-1.90,1.12,-0.93,0.78,
1.601,1.15,-0.56,-2.16,1.12,-0.93,0.78,
1.602,1.15,-0.56,-2.16,1.10,-0.90,0.77,
1.605,1.15,-0.56,-2.16,1.07,-0.86,0.76,
1.606,1.08,-0.48,-2.34,1.07,-0.86,0.76,
1.607,1.08,-0.48,-2.34,1.04,-0.83,0.75,
1.609,1.08,-0.48,-2.34,1.01,-0.80,0.73,
1.612,0.97,-0.44,-2.37,1.01,-0.80,0.73,
1.613,0.97,-0.44,-2.37,0.98,-0.76,0.72,
1.614,0.97,-0.44,-2.37,0.95,-0.73,0.71,
1.619,0.92,-0.37,-2.34,0.95,-0.73,0.71,
1.625,0.93,-0.28,-2.24,0.95,-0.73,0.71,
1.626,0.93,-0.28,-2.24,0.92,-0.70,0.70,
1.627,0.93,-0.28,-2.24,0.90,-0.66,0.68,
1.627,0.93,-0.28,-2.24,0.86,-0.63,0.67,
1.628,0.93,-0.28,-2.24,0.83,-0.60,0.66,
1.628,1.00,-0.18,-2.06,0.83,-0.60,0.66,
1.629,1.00,-0.18,-2.06,0.81,-0.57,0.65,
1.629,1.00,-0.18,-2.06,0.78,-0.55,0.63,
1.633,1.07,-0.10,-1.84,0.78,-0.55,0.63,
1.634,1.07,-0.10,-1.84,0.76,-0.53,0.61,
1.636,1.07,-0.10,-1.84,0.73,-0.51,0.59,
1.64,1.17,-0.04,-1.67,0.73,-0.51,0.59,
1.641,1.17,-0.04,-1.67,0.71,-0.49,0.57,
1.641,1.17,-0.04,-1.67,0.68,-0.48,0.54,
1.642,1.32,0.01,-1.53,0.68,-0.48,0.54,
1.642,1.32,0.01,-1.53,0.66,-0.46,0.51,
1.645,1.32,0.01,-1.53,0.63,-0.44,0.48,
1.646,1.59,0.03,-1.47,0.63,-0.44,0.48,
1.647,1.59,0.03,-1.47,0.61,-0.42,0.44,
1.649,1.59,0.03,-1.47,0.59,-0.40,0.39,
1.653,1.93,0.06,-1.38,0.59,-0.40,0.39,
1.653,1.93,0.06,-1.38,0.56,-0.38,0.35,
1.657,1.93,0.06,-1.38,0.54,-0.36,0.30,
1.658,2.14,0.14,-1.21,0.54,-0.36,0.30,
1.659,2.14,0.14,-1.21,0.53,-0.33,0.26,
1.659,2.14,0.14,-1.21,0.51,-0.31,0.21,
1.663,2.14,0.23,-0.95,0.51,-0.31,0.21,
1.668,2.14,0.23,-0.95,0.50,-0.29,0.17,
1.668,2.14,0.23,-0.95,0.49,-0.27,0.12,
1.669,2.03,0.30,-0.64,0.49,-0.27,0.12,
1.669,2.03,0.30,-0.64,0.49,-0.25,0.08,
1.67,2.03,0.30,-0.64,0.48,-0.24,0.04,
1.673,1.91,0.30,-0.36,0.48,-0.24,0.04,
1.674,1.91,0.30,-0.36,0.48,-0.23,-0.00,
1.675,1.91,0.30,-0.36,0.48,-0.21,-0.05,
1.677,1.90,0.23,-0.02,0.48,-0.21,-0.05,
1.678,1.90,0.23,-0.02,0.48,-0.20,-0.09,
1.679,1.90,0.23,-0.02,0.48,-0.19,-0.13,
1.682,1.93,0.08,0.34,0.48,-0.19,-0.13,
1.683,1.93,0.08,0.34,0.50,-0.18,-0.17,
1.685,1.93,0.08,0.34,0.51,-0.17,-0.21,
1.689,1.86,-0.07,0.74,0.51,-0.17,-0.21,
1.69,1.86,-0.07,0.74,0.54,-0.16,-0.25,
1.69,1.86,-0.07,0.74,0.57,-0.15,-0.28,
1.693,1.61,-0.19,1.17,0.57,-0.15,-0.28,
1.693,1.61,-0.19,1.17,0.60,-0.15,-0.32,
1.694,1.61,-0.19,1.17,0.64,-0.14,-0.34,
1.698,1.27,-0.29,1.50,0.64,-0.14,-0.34,
1.698,1.27,-0.29,1.50,0.68,-0.14,-0.37,
1.699,1.27,-0.29,1.50,0.72,-0.13,-0.39,
1.703,1.01,-0.44,1.64,0.72,-0.13,-0.39,
1.703,1.01,-0.44,1.64,0.77,-0.13,-0.40,
1.709,0.92,-0.64,1.53,0.77,-0.13,-0.40,
1.709,0.92,-0.64,1.53,0.81,-0.12,-0.42,
1.71,0.92,-0.64,1.53,0.85,-0.11,-0.43,
1.71,0.92,-0.64,1.53,0.89,-0.10,-0.44,
1.712,0.89,-0.81,1.24,0.89,-0.10,-0.44,
1.713,0.89,-0.81,1.24,0.92,-0.09,-0.45,
1.717,0.89,-0.81,1.24,0.95,-0.07,-0.47,
1.717,0.77,-0.87,0.89,0.95,-0.07,-0.47,
1.718,0.77,-0.87,0.89,0.97,-0.05,-0.48,
1.729,0.77,-0.87,0.89,0.98,-0.03,-0.48,
1.73,0.56,-0.84,0.49,0.98,-0.03,-0.48,
1.73,0.56,-0.84,0.49,0.99,-0.01,-0.49,
1.731,0.56,-0.84,0.49,0.99,0.02,-0.49,
1.731,0.28,-0.80,0.05,0.99,0.02,-0.49,
1.732,0.28,-0.80,0.05,0.99,0.05,-0.49,
1.732,0.28,-0.80,0.05,0.97,0.08,-0.49,
1.733,0.01,-0.75,-0.41,0.97,0.08,-0.49,
1.733,0.01,-0.75,-0.41,0.96,0.12,-0.48,
1.734,0.01,-0.75,-0.41,0.93,0.17,-0.46,
1.736,-0.12,-0.68,-0.81,0.93,0.17,-0.46,
1.737,-0.12,-0.68,-0.81,0.91,0.21,-0.45,
1.74,-0.12,-0.68,-0.81,0.88,0.26,-0.43,
1.743,-0.06,-0.57,-1.21,0.88,0.26,-0.43,
1.743,-0.06,-0.57,-1.21,0.85,0.31,-0.42,
1.744,-0.06,-0.57,-1.21,0.82,0.36,-0.41,
1.748,0.01,-0.38,-1.61,0.82,0.36,-0.41,
1.748,0.01,-0.38,-1.61,0.78,0.41,-0.40,
1.749,0.01,-0.38,-1.61,0.74,0.45,-0.40,
1.753,0.00,-0.16,-2.02,0.74,0.45,-0.40,
1.753,0.00,-0.16,-2.02,0.69,0.47,-0.40,
1.754,0.00,-0.16,-2.02,0.64,0.49,-0.40,
1.759,-0.02,0.05,-2.29,0.64,0.49,-0.40,
1.76,-0.02,0.05,-2.29,0.59,0.49,-0.40,
1.76,-0.02,0.05,-2.29,0.54,0.49,-0.40,
1.765,-0.08,0.19,-2.46,0.54,0.49,-0.40,
1.766,-0.08,0.19,-2.46,0.49,0.48,-0.41,
1.766,-0.08,0.19,-2.46,0.44,0.47,-0.41,
1.768,-0.10,0.25,-2.50,0.44,0.47,-0.41,
1.769,-0.10,0.25,-2.50,0.40,0.45,-0.42,
1.769,-0.10,0.25,-2.50,0.35,0.42,-0.43,
1.775,-0.14,0.24,-2.50,0.35,0.42,-0.43,
1.777,-0.14,0.24,-2.50,0.31,0.39,-0.44,
1.778,-0.14,0.24,-2.50,0.27,0.35,-0.45,
1.779,-0.11,0.22,-2.50,0.27,0.35,-0.45,
1.779,-0.11,0.22,-2.50,0.23,0.31,-0.47,
1.779,-0.11,0.22,-2.50,0.19,0.26,-0.48,
1.784,-0.19,0.19,-2.60,0.19,0.26,-0.48,
1.785,-0.19,0.19,-2.60,0.15,0.19,-0.49,
1.785,-0.19,0.19,-2.60,0.10,0.13,-0.50,
1.79,-0.41,0.19,-2.70,0.10,0.13,-0.50,
1.791,-0.41,0.19,-2.70,0.06,0.07,-0.51,
1.791,-0.41,0.19,-2.70,0.02,0.02,-0.52,
1.792,-0.51,0.08,-2.65,0.02,0.02,-0.52,
1.793,-0.51,0.08,-2.65,-0.02,-0.03,-0.52,
1.796,-0.51,0.08,-2.65,-0.05,-0.07,-0.53,
1.798,-0.51,0.08,-2.65,-0.06,-0.08,-0.53,
1.799,-0.43,-0.08,-2.42,-0.06,-0.08,-0.53,
1.799,-0.43,-0.08,-2.42,-0.07,-0.09,-0.53,
1.803,-0.60,-0.21,-2.04,-0.07,-0.09,-0.53,
1.803,-0.60,-0.21,-2.04,-0.08,-0.09,-0.53,
1.808,-0.60,-0.21,-2.04,-0.07,-0.08,-0.52,
1.809,-0.60,-0.21,-2.04,-0.07,-0.06,-0.50,
1.81,-0.93,-0.34,-1.73,-0.07,-0.06,-0.50,
1.81,-0.93,-0.34,-1.73,-0.07,-0.04,-0.48,
1.813,-1.22,-0.56,-1.53,-0.07,-0.04,-0.48,
1.814,-1.22,-0.56,-1.53,-0.07,-0.01,-0.46,
1.814,-1.22,-0.56,-1.53,-0.07,0.01,-0.43,
1.819,-1.40,-0.77,-1.29,-0.07,0.01,-0.43,
1.82,-1.40,-0.77,-1.29,-0.08,0.04,-0.41,
1.82,-1.40,-0.77,-1.29,-0.08,0.07,-0.39,
1.825,-1.45,-0.93,-0.88,-0.08,0.07,-0.39,
1.826,-1.45,-0.93,-0.88,-0.09,0.10,-0.36,
1.831,-1.45,-0.93,-0.88,-0.09,0.13,-0.34,
1.831,-1.45,-0.93,-0.88,-0.09,0.16,-0.32,
1.832,-1.45,-0.93,-0.88,-0.08,0.18,-0.30,
1.837,-1.55,-1.01,-0.21,-0.08,0.18,-0.30,
1.838,-1.75,-1.03,0.59,-0.08,0.18,-0.30,
1.841,-1.75,-1.03,0.59,-0.07,0.20,-0.28,
1.842,-1.75,-1.03,0.59,-0.06,0.21,-0.25,
1.843,-2.19,-1.04,1.33,-0.06,0.21,-0.25,
1.844,-2.19,-1.04,1.33,-0.05,0.22,-0.21,
1.844,-2.19,-1.04,1.33,-0.03,0.22,-0.17,
1.845,-2.67,-1.11,2.10,-0.03,0.22,-0.17,
1.846,-2.67,-1.11,2.10,0.00,0.21,-0.12,
1.846,-2.67,-1.11,2.10,0.03,0.19,-0.07,
1.847,-2.96,-1.15,2.87,0.03,0.19,-0.07,
1.847,-2.96,-1.15,2.87,0.07,0.16,-0.02,
1.855,-2.96,-1.15,2.87,0.11,0.12,0.03,
1.857,-3.07,-1.13,3.60,0.11,0.12,0.03,
1.857,-3.07,-1.13,3.60,0.16,0.08,0.09,
1.858,-3.07,-1.13,3.60,0.22,0.04,0.14,
1.858,-3.04,-1.06,4.19,0.22,0.04,0.14,
1.859,-3.04,-1.06,4.19,0.28,-0.02,0.19,
1.859,-3.04,-1.06,4.19,0.35,-0.07,0.24,
1.863,-2.85,-0.96,4.49,0.35,-0.07,0.24,
1.864,-2.85,-0.96,4.49,0.42,-0.13,0.29,
1.864,-2.85,-0.96,4.49,0.49,-0.19,0.34,
1.868,-2.73,-0.79,4.56,0.49,-0.19,0.34,
1.869,-2.73,-0.79,4.56,0.57,-0.26,0.38,
1.872,-2.73,-0.79,4.56,0.64,-0.33,0.43,
1.873,-2.74,-0.45,4.39,0.64,-0.33,0.43,
1.874,-2.74,-0.45,4.39,0.72,-0.41,0.48,
1.877,-2.74,-0.45,4.39,0.78,-0.49,0.53,
1.88,-2.83,-0.08,3.90,0.78,-0.49,0.53,
1.88,-2.83,-0.08,3.90,0.83,-0.57,0.58,
1.881,-2.83,-0.08,3.90,0.88,-0.66,0.63,
1.883,-2.69,0.23,3.08,0.88,-0.66,0.63,
1.884,-2.69,0.23,3.08,0.91,-0.74,0.67,
1.887,-2.69,0.23,3.08,0.93,-0.81,0.71,
1.887,-2.45,0.47,1.95,0.93,-0.81,0.71,
1.888,-2.45,0.47,1.95,0.93,-0.88,0.74,
1.891,-2.45,0.47,1.95,0.93,-0.94,0.76,
1.893,-1.93,0.66,0.80,0.93,-0.94,0.76,
1.893,-1.93,0.66,0.80,0.92,-0.99,0.77,
1.896,-1.93,0.66,0.80,0.89,-1.03,0.77,
1.9,-0.71,0.74,-0.28,0.89,-1.03,0.77,
1.901,-0.71,0.74,-0.28,0.85,-1.06,0.75,
1.901,-0.71,0.74,-0.28,0.81,-1.08,0.72,
1.904,-0.37,1.26,-1.15,0.81,-1.08,0.72,
1.904,-0.37,1.26,-1.15,0.77,-1.09,0.71,
1.905,-0.37,1.26,-1.15,0.71,-1.09,0.71,
1.908,-0.54,1.87,-1.93,0.71,-1.09,0.71,
1.909,-0.54,1.87,-1.93,0.65,-1.08,0.71,
1.91,-0.54,1.87,-1.93,0.59,-1.06,0.71,
1.912,-0.26,2.13,-2.66,0.59,-1.06,0.71,
1.913,-0.26,2.13,-2.66,0.52,-1.04,0.71,
1.915,-0.26,2.13,-2.66,0.44,-1.02,0.72,
1.917,-0.14,2.26,-3.33,0.44,-1.02,0.72,
1.918,-0.14,2.26,-3.33,0.35,-0.98,0.73,
1.919,-0.14,2.26,-3.33,0.27,-0.93,0.73,
1.922,0.34,2.01,-3.50,0.27,-0.93,0.73,
1.924,0.34,2.01,-3.50,0.19,-0.88,0.73,
1.927,0.34,2.01,-3.50,0.11,-0.83,0.73,
1.927,0.53,1.77,-3.20,0.11,-0.83,0.73,
1.928,0.53,1.77,-3.20,0.03,-0.79,0.73,
1.93,0.53,1.77,-3.20,-0.04,-0.75,0.73,
1.933,0.66,1.55,-2.77,-0.04,-0.75,0.73,
1.934,0.66,1.55,-2.77,-0.11,-0.71,0.73,
1.934,0.66,1.55,-2.77,-0.17,-0.68,0.74,
1.943,0.53,1.51,-2.47,-0.17,-0.68,0.74,
1.944,0.53,1.51,-2.47,-0.24,-0.64,0.75,
1.944,0.53,1.51,-2.47,-0.30,-0.60,0.76,
1.945,0.55,1.30,-2.45,-0.30,-0.60,0.76,
1.945,0.55,1.30,-2.45,-0.35,-0.56,0.78,
1.946,0.55,1.30,-2.45,-0.41,-0.50,0.78,
1.951,0.93,0.87,-2.45,-0.41,-0.50,0.78,
1.951,0.93,0.87,-2.45,-0.45,-0.44,0.78,
1.952,0.93,0.87,-2.45,-0.49,-0.36,0.79,
1.956,1.22,0.44,-2.19,-0.49,-0.36,0.79,
1.957,1.22,0.44,-2.19,-0.52,-0.28,0.79,
1.957,1.22,0.44,-2.19,-0.54,-0.19,0.78,
1.958,1.48,-0.08,-1.54,-0.54,-0.19,0.78,
1.958,1.48,-0.08,-1.54,-0.54,-0.10,0.78,
1.961,1.48,-0.08,-1.54,-0.53,-0.01,0.78,
1.962,1.71,-0.46,-0.61,-0.53,-0.01,0.78,
1.963,1.71,-0.46,-0.61,-0.51,0.07,0.78,
1.965,1.71,-0.46,-0.61,-0.49,0.14,0.78,
1.967,2.07,-0.62,0.26,-0.49,0.14,0.78,
1.968,2.07,-0.62,0.26,-0.46,0.20,0.78,
1.971,2.07,-0.62,0.26,-0.44,0.24,0.77,
1.973,2.37,-0.60,0.98,-0.44,0.24,0.77,
1.974,2.37,-0.60,0.98,-0.41,0.26,0.76,
1.974,2.37,-0.60,0.98,-0.38,0.27,0.75,
1.978,2.75,-0.73,1.44,-0.38,0.27,0.75,
1.979,2.75,-0.73,1.44,-0.34,0.27,0.74,
1.98,2.75,-0.73,1.44,-0.31,0.25,0.73,
1.982,2.73,-0.63,1.60,-0.31,0.25,0.73,
1.984,2.73,-0.63,1.60,-0.28,0.21,0.73,
1.984,2.73,-0.63,1.60,-0.24,0.18,0.74,
1.989,2.73,-0.63,1.60,-0.20,0.15,0.76,
1.99,2.43,-0.40,1.54,-0.20,0.15,0.76,
1.991,2.43,-0.40,1.54,-0.16,0.14,0.78,
1.993,2.10,-0.31,1.21,-0.16,0.14,0.78,
1.994,2.10,-0.31,1.21,-0.12,0.11,0.81,
1.994,2.10,-0.31,1.21,-0.10,0.09,0.85,
2.0,1.54,-0.13,0.24,-0.10,0.09,0.85,
2.001,1.54,-0.13,0.24,-0.08,0.08,0.90,
2.001,1.54,-0.13,0.24,-0.08,0.08,0.95,
2.004,1.06,-0.08,-1.03,-0.08,0.08,0.95,
2.006,1.06,-0.08,-1.03,-0.09,0.09,1.01,
2.007,1.06,-0.08,-1.03,-0.12,0.13,1.06,
2.007,0.73,-0.09,-2.16,-0.12,0.13,1.06,
2.007,0.73,-0.09,-2.16,-0.15,0.17,1.12,
2.01,0.73,-0.09,-2.16,-0.19,0.22,1.16,
2.014,0.61,-0.07,-2.82,-0.19,0.22,1.16,
2.014,0.61,-0.07,-2.82,-0.23,0.29,1.20,
2.014,0.61,-0.07,-2.82,-0.27,0.35,1.24,
2.019,0.71,-0.03,-2.68,-0.27,0.35,1.24,
2.019,0.71,-0.03,-2.68,-0.31,0.40,1.27,
2.02,0.71,-0.03,-2.68,-0.34,0.47,1.29,
2.023,1.15,-0.33,-1.79,-0.34,0.47,1.29,
2.024,1.15,-0.33,-1.79,-0.35,0.52,1.31,
2.026,1.15,-0.33,-1.79,-0.37,0.52,1.33,
2.03,0.35,0.33,-0.86,-0.37,0.52,1.33,
2.03,0.35,0.33,-0.86,-0.38,0.51,1.37,
2.031,0.35,0.33,-0.86,-0.38,0.52,1.39,
2.034,0.89,0.06,0.01,-0.38,0.52,1.39,
2.034,0.89,0.06,0.01,-0.38,0.52,1.41,
2.035,0.89,0.06,0.01,-0.37,0.50,1.43,
2.041,0.45,0.32,0.53,-0.37,0.50,1.43,
2.043,0.45,0.32,0.53,-0.37,0.49,1.44,
2.044,0.45,0.32,0.53,-0.36,0.47,1.45,
2.045,0.12,0.50,1.10,-0.36,0.47,1.45,
2.046,0.12,0.50,1.10,-0.36,0.43,1.47,
2.046,0.12,0.50,1.10,-0.35,0.38,1.49,
2.048,0.02,0.61,1.60,-0.35,0.38,1.49,
2.049,0.02,0.61,1.60,-0.34,0.33,1.50,
2.05,0.02,0.61,1.60,-0.33,0.27,1.51,
2.059,-0.13,0.68,1.88,-0.33,0.27,1.51,
2.06,-0.10,0.54,1.98,-0.33,0.27,1.51,
2.061,-0.10,0.54,1.98,-0.32,0.20,1.52,
2.062,-0.10,0.54,1.98,-0.30,0.14,1.53,
2.062,-0.10,0.54,1.98,-0.28,0.08,1.54,
2.063,-0.10,0.54,1.98,-0.26,0.00,1.55,
2.063,-0.35,0.47,1.57,-0.26,0.00,1.55,
2.064,-0.35,0.47,1.57,-0.25,-0.05,1.56,
2.066,-0.35,0.47,1.57,-0.24,-0.10,1.57,
2.068,-0.35,0.28,1.00,-0.24,-0.10,1.57,
2.069,-0.35,0.28,1.00,-0.23,-0.14,1.57,
2.072,-0.35,0.28,1.00,-0.23,-0.16,1.57,
2.073,-0.46,0.11,0.48,-0.23,-0.16,1.57,
2.073,-0.46,0.11,0.48,-0.23,-0.17,1.57,
2.077,-0.46,0.11,0.48,-0.22,-0.18,1.58,
2.077,-0.70,-0.07,0.19,-0.22,-0.18,1.58,
2.078,-0.70,-0.07,0.19,-0.23,-0.18,1.58,
2.082,-0.70,-0.07,0.19,-0.23,-0.17,1.58,
2.084,-0.64,-0.38,0.10,-0.23,-0.17,1.58,
2.085,-0.64,-0.38,0.10,-0.23,-0.16,1.58,
2.086,-0.64,-0.38,0.10,-0.23,-0.15,1.59,
2.091,-0.77,-0.43,0.12,-0.23,-0.15,1.59,
2.092,-0.77,-0.43,0.12,-0.23,-0.15,1.59,
2.092,-0.77,-0.43,0.12,-0.23,-0.15,1.58,
2.093,-0.61,-0.49,0.28,-0.23,-0.15,1.58,
2.093,-0.61,-0.49,0.28,-0.22,-0.16,1.57,
2.097,-0.61,-0.49,0.28,-0.21,-0.18,1.55,
2.099,-0.26,-0.52,0.87,-0.21,-0.18,1.55,
2.1,-0.26,-0.52,0.87,-0.19,-0.22,1.53,
2.1,-0.26,-0.52,0.87,-0.16,-0.28,1.51,
2.104,-0.26,-0.52,0.87,-0.13,-0.35,1.49,
2.105,-0.22,-0.30,1.43,-0.13,-0.35,1.49,
2.105,-0.22,-0.30,1.43,-0.08,-0.43,1.47,
2.11,-0.41,0.11,1.58,-0.08,-0.43,1.47,
2.111,-0.41,0.11,1.58,-0.05,-0.52,1.47,
2.111,-0.41,0.11,1.58,-0.01,-0.62,1.47,
2.114,-0.82,0.57,1.30,-0.01,-0.62,1.47,
2.114,-0.82,0.57,1.30,0.02,-0.70,1.47,
2.115,-0.82,0.57,1.30,0.06,-0.78,1.49,
2.12,-1.27,0.93,0.74,0.06,-0.78,1.49,
2.12,-1.27,0.93,0.74,0.09,-0.84,1.51,
2.121,-1.27,0.93,0.74,0.11,-0.90,1.55,
2.126,-1.82,1.36,0.06,0.11,-0.90,1.55,
2.127,-1.82,1.36,0.06,0.12,-0.94,1.58,
2.127,-1.82,1.36,0.06,0.13,-0.97,1.63,
2.128,-1.82,1.36,0.06,0.12,-0.98,1.67,
2.129,-2.20,1.46,-0.86,0.12,-0.98,1.67,
2.131,-2.20,1.46,-0.86,0.10,-0.98,1.69,
2.133,-1.83,1.03,-1.35,0.10,-0.98,1.69,
2.134,-1.83,1.03,-1.35,0.09,-0.97,1.71,
2.137,-1.83,1.03,-1.35,0.08,-0.96,1.71,
2.138,-1.83,1.03,-1.35,0.07,-0.94,1.70,
2.138,-1.00,0.31,-1.21,0.07,-0.94,1.70,
2.146,-1.00,0.31,-1.21,0.06,-0.92,1.68,
2.147,-0.27,-0.12,-0.66,0.06,-0.92,1.68,
2.147,-0.27,-0.12,-0.66,0.07,-0.90,1.65,
2.148,-0.27,-0.12,-0.66,0.08,-0.88,1.62,
2.149,0.54,-0.14,-0.21,0.08,-0.88,1.62,
2.149,0.54,-0.14,-0.21,0.09,-0.85,1.58,
2.152,0.54,-0.14,-0.21,0.10,-0.83,1.56,
2.156,0.20,0.44,-0.13,0.10,-0.83,1.56,
2.157,0.20,0.44,-0.13,0.10,-0.80,1.55,
2.157,0.20,0.44,-0.13,0.10,-0.76,1.55,
2.158,-0.50,0.97,-0.19,0.10,-0.76,1.55,
2.159,-0.50,0.97,-0.19,0.10,-0.73,1.57,
2.16,-0.50,0.97,-0.19,0.08,-0.70,1.59,
2.165,-0.74,0.90,-0.39,0.08,-0.70,1.59,
2.17,-0.74,0.90,-0.39,0.06,-0.68,1.61,
2.17,-0.74,0.90,-0.39,0.03,-0.65,1.64,
2.171,-1.11,0.81,-0.69,0.03,-0.65,1.64,
2.172,-1.11,0.81,-0.69,-0.00,-0.61,1.68,
2.172,-1.11,0.81,-0.69,-0.04,-0.57,1.70,
2.174,-0.76,0.68,-0.99,-0.04,-0.57,1.70,
2.175,-0.76,0.68,-0.99,-0.08,-0.54,1.72,
2.178,-0.76,0.68,-0.99,-0.10,-0.51,1.72,
2.181,0.01,0.16,-0.46,-0.10,-0.51,1.72,
2.181,0.01,0.16,-0.46,-0.12,-0.49,1.72,
2.182,0.01,0.16,-0.46,-0.12,-0.48,1.69,
2.184,0.46,-0.33,-0.04,-0.12,-0.48,1.69,
2.185,0.46,-0.33,-0.04,-0.12,-0.47,1.66,
2.186,0.46,-0.33,-0.04,-0.12,-0.45,1.65,
2.189,0.19,-0.41,-0.37,-0.12,-0.45,1.65,
2.19,0.19,-0.41,-0.37,-0.12,-0.41,1.63,
2.191,0.19,-0.41,-0.37,-0.11,-0.38,1.61,
2.194,0.04,-0.58,-0.39,-0.11,-0.38,1.61,
2.194,0.04,-0.58,-0.39,-0.10,-0.35,1.60,
2.196,0.04,-0.58,-0.39,-0.10,-0.34,1.60,
2.199,-0.46,-0.40,-0.38,-0.10,-0.34,1.60,
2.199,-0.46,-0.40,-0.38,-0.10,-0.33,1.61,
2.201,-0.46,-0.40,-0.38,-0.11,-0.32,1.62,
2.203,-1.03,0.21,-0.97,-0.11,-0.32,1.62,
2.204,-1.03,0.21,-0.97,-0.13,-0.32,1.65,
2.207,-1.03,0.21,-0.97,-0.15,-0.30,1.68,
2.21,-0.87,0.47,-1.25,-0.15,-0.30,1.68,
2.21,-0.87,0.47,-1.25,-0.17,-0.29,1.70,
2.211,-0.87,0.47,-1.25,-0.19,-0.28,1.71,
2.213,-0.11,0.22,-0.83,-0.19,-0.28,1.71,
2.213,-0.11,0.22,-0.83,-0.20,-0.29,1.71,
2.217,-0.11,0.22,-0.83,-0.20,-0.31,1.68,
2.219,0.53,-0.31,-0.03,-0.20,-0.31,1.68,
2.22,0.53,-0.31,-0.03,-0.20,-0.35,1.66,
2.22,0.53,-0.31,-0.03,-0.18,-0.38,1.63,
2.225,0.66,-0.35,0.39,-0.18,-0.38,1.63,
2.226,0.66,-0.35,0.39,-0.17,-0.42,1.59,
2.227,0.66,-0.35,0.39,-0.15,-0.44,1.56,
2.23,0.33,-0.15,0.39,-0.15,-0.44,1.56,
2.231,0.33,-0.15,0.39,-0.13,-0.47,1.54,
2.231,0.33,-0.15,0.39,-0.10,-0.50,1.53,
2.235,-0.30,0.20,0.61,-0.10,-0.50,1.53,
2.235,-0.30,0.20,0.61,-0.07,-0.52,1.54,
2.235,-0.30,0.20,0.61,-0.04,-0.55,1.54,
2.244,-0.45,0.56,0.61,-0.04,-0.55,1.54,
2.245,-0.45,0.56,0.61,-0.02,-0.57,1.55,
2.246,-0.45,0.56,0.61,-0.00,-0.60,1.56,
2.246,-0.54,1.16,0.27,-0.00,-0.60,1.56,
2.247,-0.54,1.16,0.27,0.01,-0.62,1.58,
2.247,-0.54,1.16,0.27,0.00,-0.61,1.60,
2.251,-0.54,1.51,-0.90,0.00,-0.61,1.60,
2.251,-0.54,1.51,-0.90,-0.02,-0.57,1.61,
2.252,-0.54,1.51,-0.90,-0.04,-0.52,1.62,
2.257,-0.36,1.49,-1.76,-0.04,-0.52,1.62,
2.257,-0.36,1.49,-1.76,-0.07,-0.45,1.62,
2.258,-0.36,1.49,-1.76,-0.11,-0.37,1.62,
2.258,-0.36,1.49,-1.76,-0.14,-0.28,1.61,
2.259,-0.27,1.41,-2.06,-0.14,-0.28,1.61,
2.261,-0.27,1.41,-2.06,-0.18,-0.21,1.60,
2.266,-0.20,0.90,-2.01,-0.18,-0.21,1.60,
2.266,-0.20,0.90,-2.01,-0.22,-0.13,1.59,
2.267,-0.20,0.90,-2.01,-0.27,-0.06,1.58,
2.269,-0.20,0.90,-2.01,-0.32,0.02,1.56,
2.27,-0.12,0.61,-2.14,-0.32,0.02,1.56,
2.271,-0.12,0.61,-2.14,-0.37,0.11,1.54,
2.275,0.24,0.76,-2.17,-0.37,0.11,1.54,
2.276,0.24,0.76,-2.17,-0.42,0.19,1.50,
2.277,0.24,0.76,-2.17,-0.47,0.27,1.46,
2.281,0.24,0.76,-2.17,-0.50,0.32,1.42,
2.282,0.64,0.79,-1.70,-0.50,0.32,1.42,
2.282,0.64,0.79,-1.70,-0.53,0.36,1.37,
2.286,1.13,0.83,-0.35,-0.53,0.36,1.37,
2.287,1.13,0.83,-0.35,-0.55,0.36,1.32,
2.287,1.13,0.83,-0.35,-0.55,0.33,1.27,
2.292,0.72,1.37,0.80,-0.55,0.33,1.27,
2.293,0.72,1.37,0.80,-0.55,0.29,1.24,
2.294,0.72,1.37,0.80,-0.54,0.25,1.22,
2.294,0.72,1.37,0.80,-0.53,0.20,1.21,
2.295,0.03,2.12,0.98,-0.53,0.20,1.21,
2.295,0.03,2.12,0.98,-0.53,0.16,1.19,
2.3,-0.18,1.98,0.33,-0.53,0.16,1.19,
2.301,-0.18,1.98,0.33,-0.54,0.13,1.18,
2.301,-0.18,1.98,0.33,-0.54,0.10,1.17,
2.304,-0.68,1.61,0.44,-0.54,0.10,1.17,
2.305,-0.68,1.61,0.44,-0.53,0.07,1.16,
2.307,-0.68,1.61,0.44,-0.51,0.04,1.14,
2.311,-0.68,1.61,0.44,-0.50,0.01,1.12,
2.312,-0.80,1.62,0.64,-0.50,0.01,1.12,
2.313,-0.80,1.62,0.64,-0.51,-0.03,1.11,
2.313,-0.78,1.69,-0.18,-0.51,-0.03,1.11,
2.313,-0.78,1.69,-0.18,-0.52,-0.06,1.10,
2.318,-0.78,1.69,-0.18,-0.55,-0.08,1.09,
2.319,-0.53,2.10,-0.90,-0.55,-0.08,1.09,
2.319,-0.53,2.10,-0.90,-0.58,-0.07,1.07,
2.321,-0.53,2.10,-0.90,-0.60,-0.06,1.04,
2.325,0.16,1.73,-0.21,-0.60,-0.06,1.04,
2.325,0.16,1.73,-0.21,-0.62,-0.07,1.01,
2.326,0.16,1.73,-0.21,-0.60,-0.14,0.98,
2.332,-0.64,0.55,3.15,-0.60,-0.14,0.98,
2.333,-0.64,0.55,3.15,-0.55,-0.26,0.98,
2.336,-0.64,0.55,3.15,-0.54,-0.36,0.98,
2.337,-1.20,-0.25,0.98,-0.54,-0.36,0.98,
2.338,-1.20,-0.25,0.98,-0.56,-0.39,0.97,
2.338,-1.20,-0.25,0.98,-0.59,-0.41,0.96,
2.345,-0.31,-2.70,0.00,-0.59,-0.41,0.96,
2.346,-0.31,-2.70,0.00,-0.63,-0.44,0.92,
2.346,-0.31,-2.70,0.00,-0.67,-0.48,0.87,
2.347,1.23,-3.59,0.89,-0.67,-0.48,0.87,
2.347,1.23,-3.59,0.89,-0.69,-0.52,0.82,
2.348,1.23,-3.59,0.89,-0.72,-0.55,0.77,
2.348,1.67,-4.20,0.70,-0.72,-0.55,0.77,
2.349,1.67,-4.20,0.70,-0.76,-0.57,0.77,
2.352,1.67,-4.20,0.70,-0.79,-0.58,0.79,
2.356,0.87,-3.67,0.48,-0.79,-0.58,0.79,
2.359,0.87,-3.67,0.48,-0.84,-0.59,0.84,
2.36,0.53,-2.86,0.29,-0.84,-0.59,0.84,
2.36,0.53,-2.86,0.29,-0.88,-0.59,0.89,
2.361,0.53,-2.86,0.29,-0.92,-0.57,0.94,
2.361,0.53,-2.86,0.29,-0.95,-0.56,0.99,
2.366,0.78,-3.03,0.37,-0.95,-0.56,0.99,
2.366,0.78,-3.03,0.37,-0.97,-0.56,1.03,
2.367,0.78,-3.03,0.37,-0.99,-0.55,1.07,
2.369,0.63,-3.39,-0.28,-0.99,-0.55,1.07,
2.37,0.63,-3.39,-0.28,-1.01,-0.54,1.10,
2.374,0.83,-3.20,-0.52,-1.01,-0.54,1.10,
2.375,0.83,-3.20,-0.52,-1.03,-0.52,1.13,
2.375,0.83,-3.20,-0.52,-1.03,-0.51,1.14,
2.381,0.83,-3.20,-0.52,-1.03,-0.52,1.15,
2.382,0.83,-3.20,-0.52,-1.02,-0.54,1.15,
2.382,1.12,-2.72,-0.35,-1.02,-0.54,1.15,
2.383,1.12,-2.72,-0.35,-1.02,-0.57,1.16,
2.383,1.16,-2.39,-0.48,-1.02,-0.57,1.16,
2.384,1.16,-2.39,-0.48,-1.01,-0.60,1.16,
2.387,1.16,-2.39,-0.48,-1.01,-0.62,1.16,
2.391,1.16,-2.39,-0.48,-1.00,-0.63,1.17,
2.392,1.23,-2.38,-0.78,-1.00,-0.63,1.17,
2.392,1.23,-2.38,-0.78,-0.99,-0.63,1.18,
2.395,1.14,-2.79,-1.10,-0.99,-0.63,1.18,
2.395,1.14,-2.79,-1.10,-0.99,-0.60,1.19,
2.396,1.14,-2.79,-1.10,-0.99,-0.55,1.21,
2.401,1.10,-3.22,-1.21,-0.99,-0.55,1.21,
2.401,1.10,-3.22,-1.21,-1.00,-0.51,1.24,
2.402,1.10,-3.22,-1.21,-1.02,-0.49,1.25,
2.407,1.52,-2.59,-0.58,-1.02,-0.49,1.25,
2.408,1.52,-2.59,-0.58,-1.04,-0.50,1.27,
2.408,1.52,-2.59,-0.58,-1.06,-0.54,1.29,
2.409,1.04,-1.00,-0.05,-1.06,-0.54,1.29,
2.41,1.04,-1.00,-0.05,-1.09,-0.58,1.34,
2.412,1.04,-1.00,-0.05,-1.13,-0.62,1.41,
2.415,0.22,0.57,-0.51,-1.13,-0.62,1.41,
2.415,0.22,0.57,-0.51,-1.18,-0.65,1.53,
2.416,0.22,0.57,-0.51,-1.23,-0.67,1.69,
2.419,0.22,0.57,-0.51,-1.28,-0.68,1.88,
2.419,-0.58,2.41,-0.92,-1.28,-0.68,1.88,
2.422,-0.58,2.41,-0.92,-1.32,-0.63,2.07,
2.424,-0.56,3.62,-2.18,-1.32,-0.63,2.07,
2.425,-0.56,3.62,-2.18,-1.35,-0.54,2.20,
2.427,-0.56,3.62,-2.18,-1.37,-0.42,2.24,
2.43,0.24,2.38,-2.47,-1.37,-0.42,2.24,
2.431,0.24,2.38,-2.47,-1.37,-0.32,2.22,
2.431,0.24,2.38,-2.47,-1.35,-0.22,2.14,
2.435,0.59,0.06,-1.75,-1.35,-0.22,2.14,
2.436,0.59,0.06,-1.75,-1.32,-0.14,2.01,
2.437,0.59,0.06,-1.75,-1.26,-0.06,1.84,
2.445,1.38,-2.75,-0.73,-1.26,-0.06,1.84,
2.446,1.38,-2.75,-0.73,-1.19,-0.00,1.64,
2.446,1.38,-2.75,-0.73,-1.10,0.04,1.41,
2.447,1.56,-4.77,0.10,-1.10,0.04,1.41,
2.447,1.56,-4.77,0.10,-0.99,0.08,1.17,
2.448,1.56,-4.77,0.10,-0.87,0.11,0.92,
2.451,1.33,-5.97,0.83,-0.87,0.11,0.92,
2.452,1.33,-5.97,0.83,-0.73,0.13,0.67,
2.453,1.33,-5.97,0.83,-0.58,0.13,0.43,
2.456,0.22,-5.81,1.74,-0.58,0.13,0.43,
2.457,0.22,-5.81,1.74,-0.41,0.10,0.23,
2.457,0.22,-5.81,1.74,-0.24,0.06,0.06,
2.461,-0.78,-4.80,1.59,-0.24,0.06,0.06,
2.461,-0.78,-4.80,1.59,-0.07,0.04,-0.08,
2.462,-0.78,-4.80,1.59,0.08,0.04,-0.21,
2.465,-0.24,-3.62,0.31,0.08,0.04,-0.21,
2.466,-0.24,-3.62,0.31,0.21,0.07,-0.31,
2.469,-0.24,-3.62,0.31,0.32,0.11,-0.38,
2.469,0.43,-2.51,-0.38,0.32,0.11,-0.38,
2.469,0.43,-2.51,-0.38,0.40,0.16,-0.44,
2.473,0.43,-2.51,-0.38,0.46,0.20,-0.48,
2.475,0.93,-2.11,-0.83,0.46,0.20,-0.48,
2.475,0.93,-2.11,-0.83,0.51,0.25,-0.52,
2.48,0.71,-1.43,-1.11,0.51,0.25,-0.52,
2.48,0.71,-1.43,-1.11,0.52,0.30,-0.54,
2.481,0.71,-1.43,-1.11,0.53,0.33,-0.56,
2.483,0.71,-1.43,-1.11,0.52,0.34,-0.57,
2.485,0.71,-0.83,-0.59,0.52,0.34,-0.57,
2.486,0.71,-0.83,-0.59,0.50,0.34,-0.59,
2.487,0.71,-0.83,-0.59,0.47,0.31,-0.59,
2.49,0.24,0.06,-0.42,0.47,0.31,-0.59,
2.491,0.24,0.06,-0.42,0.43,0.29,-0.57,
2.492,0.24,0.06,-0.42,0.39,0.28,-0.55,
2.495,0.01,0.48,-0.61,0.39,0.28,-0.55,
2.496,0.01,0.48,-0.61,0.34,0.28,-0.53,
2.496,0.01,0.48,-0.61,0.28,0.26,-0.50,
2.502,-0.20,0.86,-0.07,0.28,0.26,-0.50,
2.503,-0.20,0.86,-0.07,0.23,0.21,-0.46,
2.506,-0.20,0.86,-0.07,0.18,0.13,-0.43,
2.507,-0.07,1.41,1.02,0.18,0.13,-0.43,
2.508,-0.07,1.41,1.02,0.13,-0.02,-0.39,
2.51,-2.20,3.78,0.51,0.13,-0.02,-0.39,
2.511,-2.20,3.78,0.51,0.08,-0.13,-0.32,
2.512,-2.20,3.78,0.51,0.02,-0.18,-0.18,
2.513,-2.20,3.78,0.51,-0.05,-0.19,-0.04,
2.514,-0.62,3.07,-0.27,-0.05,-0.19,-0.04,
2.514,-0.62,3.07,-0.27,-0.12,-0.22,0.03,
2.519,-0.62,3.07,-0.27,-0.18,-0.26,0.06,
2.52,0.67,1.15,0.10,-0.18,-0.26,0.06,
2.52,0.67,1.15,0.10,-0.22,-0.28,0.08,
2.523,0.67,1.15,0.10,-0.26,-0.28,0.09,
2.524,0.30,0.52,-0.22,-0.26,-0.28,0.09,
2.525,0.30,0.52,-0.22,-0.30,-0.29,0.10,
2.527,0.30,0.52,-0.22,-0.32,-0.30,0.10,
2.529,0.04,0.11,0.06,-0.32,-0.30,0.10,
2.53,0.04,0.11,0.06,-0.33,-0.32,0.10,
2.533,0.04,0.11,0.06,-0.32,-0.43,0.08,
2.534,1.12,-0.27,1.72,-0.32,-0.43,0.08,
2.534,1.12,-0.27,1.72,-0.30,-0.61,0.06,
2.542,1.12,-0.27,1.72,-0.26,-0.70,0.06,
2.543,-0.34,0.54,1.00,-0.26,-0.70,0.06,
2.543,-0.34,0.54,1.00,-0.22,-0.74,0.09,
2.544,-0.34,0.54,1.00,-0.18,-0.76,0.12,
2.544,-0.29,0.63,0.13,-0.18,-0.76,0.12,
2.545,-0.29,0.63,0.13,-0.14,-0.76,0.15,
2.549,-0.29,0.63,0.13,-0.08,-0.76,0.16,
2.55,-0.02,0.22,0.49,-0.08,-0.76,0.16,
2.55,-0.02,0.22,0.49,-0.02,-0.75,0.17,
2.552,-0.02,0.22,0.49,0.05,-0.75,0.17,
2.555,-0.02,0.22,0.49,0.11,-0.74,0.17,
2.556,0.15,0.43,0.51,0.11,-0.74,0.17,
2.556,0.15,0.43,0.51,0.16,-0.70,0.16,
2.56,0.29,0.76,-0.07,0.16,-0.70,0.16,
2.56,0.29,0.76,-0.07,0.21,-0.66,0.15,
2.562,0.29,0.76,-0.07,0.24,-0.64,0.15,
2.564,0.29,0.98,0.19,0.24,-0.64,0.15,
2.565,0.29,0.98,0.19,0.28,-0.63,0.15,
2.567,0.29,0.98,0.19,0.31,-0.63,0.16,
2.569,0.42,0.99,0.20,0.31,-0.63,0.16,
2.569,0.42,0.99,0.20,0.34,-0.62,0.16,
2.573,0.42,0.99,0.20,0.36,-0.61,0.17,
2.576,0.54,0.84,0.18,0.36,-0.61,0.17,
2.576,0.54,0.84,0.18,0.38,-0.61,0.18,
2.577,0.54,0.84,0.18,0.39,-0.61,0.20,
2.58,0.64,0.62,0.35,0.39,-0.61,0.20,
2.581,0.64,0.62,0.35,0.41,-0.63,0.21,
2.582,0.64,0.62,0.35,0.41,-0.65,0.21,
2.585,0.68,0.42,0.38,0.41,-0.65,0.21,
2.586,0.68,0.42,0.38,0.42,-0.67,0.21,
2.587,0.68,0.42,0.38,0.42,-0.69,0.21,
2.591,0.75,0.18,0.19,0.42,-0.69,0.21,
2.592,0.75,0.18,0.19,0.41,-0.71,0.22,
2.593,0.75,0.18,0.19,0.40,-0.73,0.22,
2.595,0.65,0.01,-0.01,0.40,-0.73,0.22,
2.596,0.65,0.01,-0.01,0.39,-0.74,0.22,
2.597,0.65,0.01,-0.01,0.38,-0.76,0.23,
2.601,0.42,-0.04,0.03,0.38,-0.76,0.23,
2.602,0.42,-0.04,0.03,0.37,-0.79,0.24,
2.602,0.42,-0.04,0.03,0.36,-0.82,0.25,
2.605,0.50,-0.01,0.08,0.36,-0.82,0.25,
2.605,0.50,-0.01,0.08,0.35,-0.85,0.25,
2.609,0.50,-0.01,0.08,0.34,-0.88,0.24,
2.61,0.56,-0.23,-0.27,0.34,-0.88,0.24,
2.611,0.56,-0.23,-0.27,0.33,-0.89,0.23,
2.612,0.56,-0.23,-0.27,0.32,-0.88,0.23,
2.615,-0.01,-0.22,-0.35,0.32,-0.88,0.23,
2.616,-0.01,-0.22,-0.35,0.32,-0.87,0.23,
2.618,-0.01,-0.22,-0.35,0.31,-0.86,0.24,
2.619,-0.88,0.17,-0.06,0.31,-0.86,0.24,
2.619,-0.88,0.17,-0.06,0.32,-0.86,0.26,
2.625,-0.88,0.17,-0.06,0.32,-0.85,0.29,
2.626,-0.85,0.26,-0.08,0.32,-0.85,0.29,
2.626,-0.85,0.26,-0.08,0.33,-0.84,0.32,
2.627,-0.85,0.26,-0.08,0.33,-0.83,0.34,
2.631,-0.17,-0.10,-0.20,0.33,-0.83,0.34,
2.632,-0.17,-0.10,-0.20,0.33,-0.81,0.35,
2.633,-0.17,-0.10,-0.20,0.33,-0.80,0.36,
2.635,0.20,-0.31,-0.20,0.33,-0.80,0.36,
2.636,0.20,-0.31,-0.20,0.33,-0.78,0.35,
2.637,0.20,-0.31,-0.20,0.32,-0.77,0.34,
2.644,-0.03,-0.34,-0.26,0.32,-0.77,0.34,
2.645,-0.03,-0.34,-0.26,0.32,-0.75,0.34,
2.646,-0.03,-0.34,-0.26,0.31,-0.73,0.33,
2.646,-0.28,-0.41,-0.27,0.31,-0.73,0.33,
2.647,-0.28,-0.41,-0.27,0.30,-0.72,0.31,
2.647,-0.28,-0.41,-0.27,0.29,-0.70,0.30,
2.653,-0.28,-0.41,-0.27,0.27,-0.67,0.28,
2.665,-0.28,-0.41,-0.27,0.25,-0.64,0.25,
2.666,-0.28,-0.41,-0.27,0.23,-0.60,0.22,
2.667,-0.33,-0.51,-0.51,0.23,-0.60,0.22,
2.667,-0.33,-0.51,-0.51,0.21,-0.56,0.19,
2.668,-0.50,-0.55,-0.73,0.21,-0.56,0.19,
2.669,-0.76,-0.61,-0.78,0.21,-0.56,0.19,
2.669,-0.76,-0.61,-0.78,0.18,-0.52,0.15,
2.67,-0.76,-0.61,-0.78,0.16,-0.47,0.12,
2.671,-0.76,-0.61,-0.78,0.14,-0.40,0.08,
2.677,-1.13,-0.65,-0.90,0.14,-0.40,0.08,
2.678,-0.72,-0.71,-0.56,0.14,-0.40,0.08,
2.678,-0.72,-0.71,-0.56,0.13,-0.36,0.03,
2.679,-0.72,-0.71,-0.56,0.11,-0.34,-0.01,
2.679,-0.74,-0.56,-0.47,0.11,-0.34,-0.01,
2.68,-0.74,-0.56,-0.47,0.10,-0.32,-0.03,
2.68,-0.74,-0.56,-0.47,0.09,-0.30,-0.05,
2.681,-0.74,-0.56,-0.47,0.08,-0.28,-0.04,
2.681,-0.74,-0.56,-0.47,0.08,-0.27,-0.04,
2.682,-0.78,-0.50,-0.27,0.08,-0.27,-0.04,
2.682,-0.78,-0.50,-0.27,0.07,-0.26,-0.03,
2.687,-0.84,-0.40,0.02,0.07,-0.26,-0.03,
2.688,-0.84,-0.40,0.02,0.08,-0.26,-0.02,
2.689,-0.84,-0.40,0.02,0.08,-0.26,-0.00,
2.69,-0.84,-0.40,0.02,0.08,-0.24,0.00,
2.691,-0.98,-0.25,0.01,0.08,-0.24,0.00,
2.692,-0.98,-0.25,0.01,0.09,-0.24,0.01,
2.694,-0.89,-0.30,0.16,0.09,-0.24,0.01,
2.694,-0.89,-0.30,0.16,0.11,-0.23,0.02,
2.697,-0.89,-0.30,0.16,0.12,-0.22,0.03,
2.7,-1.12,-0.34,0.08,0.12,-0.22,0.03,
2.701,-1.12,-0.34,0.08,0.13,-0.21,0.03,
2.702,-1.12,-0.34,0.08,0.14,-0.21,0.04,
2.705,-1.16,-0.52,0.23,0.14,-0.21,0.04,
2.706,-1.16,-0.52,0.23,0.15,-0.20,0.04,
2.711,-1.11,-0.58,0.15,0.15,-0.20,0.04,
2.711,-1.11,-0.58,0.15,0.16,-0.20,0.03,
2.712,-1.11,-0.58,0.15,0.17,-0.18,0.03,
2.712,-1.11,-0.58,0.15,0.17,-0.22,0.02,
2.714,0.12,-0.64,1.55,0.17,-0.22,0.02,
2.715,0.12,-0.64,1.55,0.17,-0.40,-0.01,
2.716,0.12,-0.64,1.55,0.17,-0.53,-0.02,
2.72,-0.98,-0.41,0.64,0.17,-0.53,-0.02,
2.721,-0.98,-0.41,0.64,0.17,-0.55,0.00,
2.724,-0.98,-0.41,0.64,0.15,-0.49,0.03,
2.725,-1.85,-0.58,-1.13,0.15,-0.49,0.03,
2.725,-1.85,-0.58,-1.13,0.11,-0.36,0.06,
2.727,-1.85,-0.58,-1.13,0.06,-0.21,0.09,
2.731,-1.69,-0.36,-1.24,0.06,-0.21,0.09,
2.731,-1.69,-0.36,-1.24,-0.00,-0.08,0.11,
2.732,-1.69,-0.36,-1.24,-0.08,0.05,0.10,
2.735,-1.15,-0.56,-0.61,-0.08,0.05,0.10,
2.735,-1.15,-0.56,-0.61,-0.18,0.12,0.08,
2.744,-1.15,-0.56,-0.61,-0.29,0.11,0.03,
2.745,-0.68,-0.16,1.10,-0.29,0.11,0.03,
2.745,-0.68,-0.16,1.10,-0.38,0.05,-0.02,
2.746,-0.68,-0.16,1.10,-0.45,-0.02,-0.04,
2.746,-1.25,0.16,0.94,-0.45,-0.02,-0.04,
2.747,-1.25,0.16,0.94,-0.50,-0.06,-0.04,
2.747,-1.25,0.16,0.94,-0.52,-0.07,-0.03,
2.751,-1.11,-0.09,0.38,-0.52,-0.07,-0.03,
2.751,-1.11,-0.09,0.38,-0.53,-0.07,-0.01,
2.752,-1.11,-0.09,0.38,-0.53,-0.05,0.01,
2.757,-0.79,-0.10,0.12,-0.53,-0.05,0.01,
2.758,-0.79,-0.10,0.12,-0.53,-0.04,0.02,
2.758,-0.79,-0.10,0.12,-0.52,-0.02,0.03,
2.761,-0.69,-0.35,0.32,-0.52,-0.02,0.03,
2.761,-0.69,-0.35,0.32,-0.50,-0.02,0.02,
2.762,-0.69,-0.35,0.32,-0.47,-0.05,0.00,
2.766,-0.56,-0.65,0.61,-0.47,-0.05,0.00,
2.767,-0.56,-0.65,0.61,-0.43,-0.06,-0.02,
2.767,-0.56,-0.65,0.61,-0.39,-0.06,-0.04,
2.77,-0.58,0.01,-0.79,-0.39,-0.06,-0.04,
2.771,-0.58,0.01,-0.79,-0.36,-0.01,-0.05,
2.773,-0.58,0.01,-0.79,-0.32,0.07,-0.05,
2.776,-0.77,-0.68,-0.10,-0.32,0.07,-0.05,
2.778,-0.77,-0.68,-0.10,-0.26,0.07,-0.06,
2.779,-0.77,-0.68,-0.10,-0.18,0.07,-0.07,
2.779,-1.02,1.44,-0.13,-0.18,0.07,-0.07,
2.78,-1.02,1.44,-0.13,-0.03,0.15,-0.05,
2.783,-1.02,1.44,-0.13,0.16,0.23,0.11,
2.786,-2.40,8.98,-0.47,0.16,0.23,0.11,
2.787,-2.40,8.98,-0.47,0.31,0.26,0.35,
2.787,-2.40,8.98,-0.47,0.34,0.24,0.56,
2.79,0.74,14.53,-1.19,0.34,0.24,0.56,
2.792,0.74,14.53,-1.19,0.26,0.08,0.80,
2.792,0.74,14.53,-1.19,0.16,-0.05,1.10,
2.795,1.25,14.71,-0.92,0.16,-0.05,1.10,
2.796,1.25,14.71,-0.92,0.09,-0.11,1.40,
2.799,1.25,14.71,-0.92,0.09,-0.16,1.63,
2.8,1.53,5.11,0.97,0.09,-0.16,1.63,
2.801,1.53,5.11,0.97,0.14,-0.21,1.74,
2.802,1.53,5.11,0.97,0.23,-0.26,1.78,
2.806,0.98,-2.54,2.10,0.23,-0.26,1.78,
2.807,0.98,-2.54,2.10,0.32,-0.32,1.74,
2.809,0.98,-2.54,2.10,0.39,-0.43,1.65,
2.81,0.40,-5.46,4.60,0.39,-0.43,1.65,
2.811,0.40,-5.46,4.60,0.47,-0.60,1.52,
2.814,0.40,-5.46,4.60,0.51,-0.73,1.35,
2.817,0.63,-5.87,2.44,0.51,-0.73,1.35,
2.817,0.63,-5.87,2.44,0.48,-0.77,1.17,
2.818,0.63,-5.87,2.44,0.43,-0.75,1.00,
2.819,0.33,-3.14,-0.31,0.43,-0.75,1.00,
2.82,0.33,-3.14,-0.31,0.36,-0.71,0.86,
2.824,0.33,-3.14,-0.31,0.31,-0.67,0.74,
2.825,-0.15,0.56,-0.60,0.31,-0.67,0.74,
2.825,-0.15,0.56,-0.60,0.26,-0.64,0.67,
2.828,-0.15,0.56,-0.60,0.22,-0.63,0.63,
2.83,0.16,2.50,-0.91,0.22,-0.63,0.63,
2.831,0.16,2.50,-0.91,0.20,-0.62,0.58,
2.836,0.16,2.50,-0.91,0.20,-0.62,0.51,
2.837,1.52,3.01,-0.04,0.20,-0.62,0.51,
2.837,1.52,3.01,-0.04,0.22,-0.63,0.43,
2.838,1.52,3.01,-0.04,0.22,-0.64,0.33,
2.849,2.25,2.68,-0.31,0.22,-0.64,0.33,
2.85,2.25,2.68,-0.31,0.24,-0.65,0.21,
2.85,2.25,2.68,-0.31,0.27,-0.66,0.07,
2.851,1.37,2.41,0.22,0.27,-0.66,0.07,
2.852,1.37,2.41,0.22,0.30,-0.66,-0.04,
2.852,1.37,2.41,0.22,0.30,-0.67,-0.12,
2.853,-0.18,1.92,-0.53,0.30,-0.67,-0.12,
2.853,-0.18,1.92,-0.53,0.29,-0.71,-0.18,
2.854,-0.18,1.92,-0.53,0.27,-0.76,-0.20,
2.86,-1.01,1.67,-0.34,0.27,-0.76,-0.20,
2.861,-1.01,1.67,-0.34,0.27,-0.77,-0.20,
2.861,-1.01,1.67,-0.34,0.27,-0.75,-0.20,
2.862,-0.50,4.49,0.33,0.27,-0.75,-0.20,
2.862,-0.50,4.49,0.33,0.29,-0.70,-0.19,
2.862,-0.50,4.49,0.33,0.32,-0.66,-0.19,
2.866,0.42,3.72,1.23,0.32,-0.66,-0.19,
2.869,0.42,3.72,1.23,0.35,-0.66,-0.23,
2.869,0.42,3.72,1.23,0.36,-0.67,-0.29,
2.87,0.76,2.49,-0.50,0.36,-0.67,-0.29,
2.871,0.76,2.49,-0.50,0.33,-0.65,-0.36,
2.872,0.76,2.49,-0.50,0.28,-0.60,-0.44,
2.877,0.40,1.70,-1.50,0.28,-0.60,-0.44,
2.877,0.40,1.70,-1.50,0.23,-0.58,-0.52,
2.877,0.40,1.70,-1.50,0.18,-0.58,-0.60,
2.88,0.19,1.44,-0.64,0.18,-0.58,-0.60,
2.881,0.19,1.44,-0.64,0.14,-0.59,-0.67,
2.882,0.19,1.44,-0.64,0.11,-0.62,-0.72,
2.887,-0.07,1.48,0.80,0.11,-0.62,-0.72,
2.887,-0.07,1.48,0.80,0.10,-0.66,-0.75,
2.888,-0.07,1.48,0.80,0.09,-0.70,-0.78,
2.893,-0.18,1.14,0.51,0.09,-0.70,-0.78,
2.894,-0.18,1.14,0.51,0.08,-0.70,-0.80,
2.895,-0.18,1.14,0.51,0.06,-0.65,-0.82,
2.895,-0.51,1.18,-0.71,0.06,-0.65,-0.82,
2.895,-0.51,1.18,-0.71,0.04,-0.58,-0.81,
2.899,-0.51,1.18,-0.71,0.01,-0.51,-0.81,
2.902,-0.48,0.84,-1.69,0.01,-0.51,-0.81,
2.903,-0.48,0.84,-1.69,-0.04,-0.44,-0.80,
2.903,-0.48,0.84,-1.69,-0.09,-0.37,-0.79,
2.908,-0.41,0.41,-2.68,-0.09,-0.37,-0.79,
2.909,-0.41,0.41,-2.68,-0.16,-0.32,-0.78,
2.91,-0.41,0.41,-2.68,-0.22,-0.32,-0.77,
2.91,-0.38,-0.28,-1.63,-0.22,-0.32,-0.77,
2.911,-0.38,-0.28,-1.63,-0.27,-0.36,-0.75,
2.914,-0.38,-0.28,-1.63,-0.32,-0.41,-0.74,
2.915,-0.16,-0.83,-0.71,-0.32,-0.41,-0.74,
2.915,-0.16,-0.83,-0.71,-0.35,-0.46,-0.72,
2.919,-0.16,-0.83,-0.71,-0.37,-0.55,-0.71,
2.922,0.08,-1.85,1.21,-0.37,-0.55,-0.71,
2.923,0.08,-1.85,1.21,-0.37,-0.64,-0.68,
2.923,0.08,-1.85,1.21,-0.36,-0.69,-0.63,
2.928,0.49,-2.26,0.53,-0.36,-0.69,-0.63,
2.929,0.49,-2.26,0.53,-0.36,-0.66,-0.57,
2.93,0.49,-2.26,0.53,-0.36,-0.58,-0.50,
2.93,0.65,-2.09,-0.82,-0.36,-0.58,-0.50,
2.931,0.65,-2.09,-0.82,-0.37,-0.48,-0.41,
2.935,0.65,-2.09,-0.82,-0.38,-0.38,-0.32,
2.936,0.65,-2.09,-0.82,-0.39,-0.29,-0.23,
2.936,0.74,-1.61,-0.94,-0.39,-0.29,-0.23,
2.944,0.90,-1.43,-0.92,-0.39,-0.29,-0.23,
2.945,0.90,-1.43,-0.92,-0.40,-0.21,-0.14,
2.946,0.90,-1.43,-0.92,-0.41,-0.14,-0.06,
2.946,0.90,-1.43,-0.92,-0.43,-0.06,0.01,
2.947,0.31,-1.44,-1.31,-0.43,-0.06,0.01,
2.947,0.31,-1.44,-1.31,-0.44,0.00,0.08,
2.948,0.31,-1.44,-1.31,-0.45,0.02,0.13,
2.952,-0.27,-0.77,0.31,-0.45,0.02,0.13,
2.953,-0.27,-0.77,0.31,-0.44,0.01,0.19,
2.954,-0.27,-0.77,0.31,-0.42,-0.01,0.25,
2.958,-0.56,0.22,1.01,-0.42,-0.01,0.25,
2.959,-0.56,0.22,1.01,-0.39,-0.04,0.29,
2.959,-0.56,0.22,1.01,-0.37,-0.04,0.33,
2.96,-0.56,0.22,1.01,-0.35,0.02,0.36,
2.961,-0.42,1.09,-0.20,-0.35,0.02,0.36,
2.963,-0.42,1.09,-0.20,-0.33,0.05,0.39,
2.966,-0.43,1.19,0.33,-0.33,0.05,0.39,
2.966,-0.43,1.19,0.33,-0.32,-0.00,0.42,
2.97,-0.43,1.19,0.33,-0.28,-0.13,0.45,
2.975,-0.76,1.41,2.75,-0.28,-0.13,0.45,
2.976,-0.76,1.41,2.75,-0.24,-0.27,0.49,
2.977,-0.76,1.41,2.75,-0.19,-0.38,0.54,
2.978,-0.97,1.71,2.18,-0.19,-0.38,0.54,
2.978,-0.97,1.71,2.18,-0.15,-0.46,0.60,
2.979,-0.97,1.71,2.18,-0.12,-0.53,0.65,
2.982,-0.98,1.36,1.41,-0.12,-0.53,0.65,
2.983,-0.98,1.36,1.41,-0.10,-0.58,0.70,
2.983,-0.98,1.36,1.41,-0.09,-0.57,0.75,
2.988,-0.98,1.36,1.41,-0.10,-0.49,0.80,
2.989,-0.98,1.36,1.41,-0.13,-0.38,0.83,
2.989,-1.20,0.72,-0.29,-0.13,-0.38,0.83,
2.991,-1.05,0.63,-0.87,-0.13,-0.38,0.83,
2.992,-1.05,0.63,-0.87,-0.15,-0.31,0.85,
2.992,-1.05,0.63,-0.87,-0.14,-0.32,0.86,
2.998,-0.59,0.67,0.96,-0.14,-0.32,0.86,
2.999,-0.59,0.67,0.96,-0.09,-0.37,0.84,
2.999,-0.59,0.67,0.96,-0.03,-0.43,0.82,
3.003,-0.36,0.45,1.25,-0.03,-0.43,0.82,
3.004,-0.36,0.45,1.25,0.03,-0.49,0.79,
3.004,-0.36,0.45,1.25,0.09,-0.51,0.74,
3.007,-0.03,-0.02,0.73,0.09,-0.51,0.74,
3.009,-0.03,-0.02,0.73,0.14,-0.52,0.68,
3.009,-0.03,-0.02,0.73,0.17,-0.52,0.61,
3.012,0.29,-0.46,0.49,0.17,-0.52,0.61,
3.013,0.29,-0.46,0.49,0.20,-0.51,0.52,
3.013,0.29,-0.46,0.49,0.20,-0.49,0.45,
3.016,0.61,-0.66,0.18,0.20,-0.49,0.45,
3.017,0.61,-0.66,0.18,0.19,-0.45,0.36,
3.019,0.61,-0.66,0.18,0.15,-0.42,0.30,
3.021,0.35,-0.96,-0.45,0.15,-0.42,0.30,
3.022,0.35,-0.96,-0.45,0.09,-0.42,0.27,
3.025,0.35,-0.96,-0.45,0.03,-0.40,0.25,
3.026,0.08,-0.92,-0.83,0.03,-0.40,0.25,
3.026,0.08,-0.92,-0.83,-0.02,-0.36,0.24,
3.029,0.08,-0.92,-0.83,-0.07,-0.31,0.24,
3.03,-0.03,-1.18,-0.86,-0.07,-0.31,0.24,
3.03,-0.03,-1.18,-0.86,-0.11,-0.26,0.25,
3.035,-0.03,-1.18,-0.86,-0.14,-0.20,0.26,
3.035,-0.05,-2.08,-1.14,-0.14,-0.20,0.26,
3.036,-0.05,-2.08,-1.14,-0.18,-0.09,0.28,
3.038,-0.05,-2.08,-1.14,-0.22,0.01,0.30,
3.046,0.18,-3.07,-0.99,-0.22,0.01,0.30,
3.046,0.18,-3.07,-0.99,-0.25,0.11,0.33,
3.047,0.18,-3.07,-0.99,-0.24,0.20,0.34,
3.047,0.64,-3.62,-0.11,-0.24,0.20,0.34,
3.048,0.64,-3.62,-0.11,-0.21,0.29,0.35,
3.048,0.64,-3.62,-0.11,-0.17,0.36,0.33,
3.053,1.38,-3.85,0.55,-0.17,0.36,0.33,
3.053,1.38,-3.85,0.55,-0.12,0.43,0.30,
3.054,1.38,-3.85,0.55,-0.07,0.47,0.26,
3.059,1.92,-3.99,1.21,-0.07,0.47,0.26,
3.06,1.92,-3.99,1.21,-0.01,0.48,0.22,
3.06,1.92,-3.99,1.21,0.04,0.47,0.18,
3.061,1.90,-4.17,1.61,0.04,0.47,0.18,
3.061,1.90,-4.17,1.61,0.09,0.45,0.14,
3.063,1.90,-4.17,1.61,0.13,0.43,0.11,
3.068,1.57,-4.30,1.37,0.13,0.43,0.11,
3.069,1.57,-4.30,1.37,0.16,0.40,0.09,
3.069,1.57,-4.30,1.37,0.18,0.36,0.07,
3.071,1.20,-4.44,1.13,0.18,0.36,0.07,
3.072,1.20,-4.44,1.13,0.19,0.32,0.05,
3.074,1.20,-4.44,1.13,0.19,0.28,0.03,
3.077,0.80,-4.39,0.80,0.19,0.28,0.03,
3.082,0.80,-4.39,0.80,0.20,0.23,0.02,
3.082,0.80,-4.39,0.80,0.21,0.18,0.01,
3.083,0.42,-4.03,0.48,0.21,0.18,0.01,
3.083,0.42,-4.03,0.48,0.20,0.13,0.01,
3.085,0.42,-4.03,0.48,0.20,0.07,0.01,
3.088,0.18,-3.34,0.88,0.20,0.07,0.01,
3.093,-0.85,-2.46,0.69,0.20,0.07,0.01,
3.093,-0.85,-2.46,0.69,0.20,-0.07,0.02,
3.094,-0.85,-2.46,0.69,0.21,-0.26,0.03,
3.094,-0.85,-2.46,0.69,0.20,-0.38,0.03,
3.094,-0.85,-2.46,0.69,0.17,-0.41,0.04,
3.099,-1.23,-1.66,-1.65,0.17,-0.41,0.04,
3.099,-1.23,-1.66,-1.65,0.11,-0.38,0.04,
3.1,-1.23,-1.66,-1.65,0.04,-0.34,0.04,
3.101,-1.04,-0.78,-2.07,0.04,-0.34,0.04,
3.101,-1.04,-0.78,-2.07,-0.01,-0.30,0.04,
3.104,-1.04,-0.78,-2.07,-0.07,-0.25,0.04,
3.109,-1.04,-0.78,-2.07,-0.11,-0.23,0.03,
3.11,-1.04,-0.78,-2.07,-0.14,-0.24,0.03,
3.11,-0.81,0.26,-1.39,-0.14,-0.24,0.03,
3.11,-0.55,1.27,0.13,-0.14,-0.24,0.03,
3.111,-0.55,1.27,0.13,-0.15,-0.31,0.01,
3.114,-0.55,1.27,0.13,-0.14,-0.42,-0.01,
3.117,-0.86,1.94,1.12,-0.14,-0.42,-0.01,
3.117,-0.86,1.94,1.12,-0.13,-0.54,-0.02,
3.118,-0.86,1.94,1.12,-0.12,-0.67,-0.02,
3.122,-1.49,2.28,1.13,-0.12,-0.67,-0.02,
3.122,-1.49,2.28,1.13,-0.11,-0.80,-0.02,
3.123,-1.49,2.28,1.13,-0.11,-0.94,0.00,
3.127,-1.80,2.57,0.78,-0.11,-0.94,0.00,
3.128,-1.80,2.57,0.78,-0.12,-1.06,0.03,
3.129,-1.80,2.57,0.78,-0.15,-1.13,0.06,
3.132,-1.74,2.69,-0.44,-0.15,-1.13,0.06,
3.132,-1.74,2.69,-0.44,-0.19,-1.13,0.11,
3.133,-1.74,2.69,-0.44,-0.24,-1.10,0.15,
3.136,-1.18,2.20,-0.92,-0.24,-1.10,0.15,
3.136,-1.18,2.20,-0.92,-0.29,-1.06,0.19,
3.145,-1.18,2.20,-0.92,-0.33,-1.00,0.23,
3.146,-0.58,1.13,-0.79,-0.33,-1.00,0.23,
3.146,-0.58,1.13,-0.79,-0.36,-0.94,0.26,
3.147,-0.58,1.13,-0.79,-0.38,-0.87,0.28,
3.147,0.08,-0.06,-0.47,-0.38,-0.87,0.28,
3.148,0.08,-0.06,-0.47,-0.39,-0.79,0.31,
3.149,0.08,-0.06,-0.47,-0.38,-0.72,0.33,
3.153,0.55,-0.64,-0.11,-0.38,-0.72,0.33,
3.153,0.55,-0.64,-0.11,-0.36,-0.64,0.35,
3.154,0.55,-0.64,-0.11,-0.34,-0.54,0.38,
3.157,0.94,-0.93,-0.32,-0.34,-0.54,0.38,
3.158,0.94,-0.93,-0.32,-0.31,-0.43,0.41,
3.158,0.94,-0.93,-0.32,-0.30,-0.32,0.43,
3.165,1.62,-1.47,-0.57,-0.30,-0.32,0.43,
3.165,1.62,-1.47,-0.57,-0.28,-0.15,0.46,
3.166,1.62,-1.47,-0.57,-0.27,0.11,0.48,
3.169,3.75,-2.13,-0.54,-0.27,0.11,0.48,
3.172,3.75,-2.13,-0.54,-0.25,0.34,0.46,
3.174,3.75,-2.13,-0.54,-0.21,0.41,0.41,
3.174,4.58,-2.08,1.13,-0.21,0.41,0.41,
3.177,4.58,-2.08,1.13,-0.19,0.40,0.34,
3.178,4.58,-2.08,1.13,-0.17,0.39,0.27,
3.178,2.78,-1.66,0.73,-0.17,0.39,0.27,
3.179,2.78,-1.66,0.73,-0.16,0.32,0.20,
3.179,2.78,-1.66,0.73,-0.15,0.25,0.14,
3.185,1.82,-1.19,-0.10,-0.15,0.25,0.14,
3.186,1.82,-1.19,-0.10,-0.14,0.26,0.08,
3.186,1.82,-1.19,-0.10,-0.12,0.28,0.01,
3.187,1.45,-1.38,0.28,-0.12,0.28,0.01,
3.189,1.45,-1.38,0.28,-0.08,0.29,-0.06,
3.19,1.45,-1.38,0.28,-0.04,0.29,-0.11,
3.19,0.32,-1.51,0.71,-0.04,0.29,-0.11,
3.191,0.32,-1.51,0.71,-0.02,0.28,-0.15,
3.193,0.32,-1.51,0.71,-0.00,0.25,-0.19,
3.196,-0.60,-1.82,0.61,-0.00,0.25,-0.19,
3.197,-0.60,-1.82,0.61,0.01,0.21,-0.22,
3.199,-0.60,-1.82,0.61,0.01,0.18,-0.23,
3.202,-1.72,-2.41,0.27,0.01,0.18,-0.23,
3.202,-1.72,-2.41,0.27,0.01,0.13,-0.24,
3.204,-1.72,-2.41,0.27,0.05,-0.04,-0.25,
3.206,-1.69,-1.10,1.99,0.05,-0.04,-0.25,
3.207,-1.69,-1.10,1.99,0.11,-0.22,-0.27,
3.21,-1.69,-1.10,1.99,0.15,-0.35,-0.26,
3.214,-2.61,-0.67,0.98,0.15,-0.35,-0.26,
3.214,-2.61,-0.67,0.98,0.18,-0.45,-0.23,
3.214,-2.61,-0.67,0.98,0.20,-0.57,-0.19,
3.217,-2.67,-0.54,0.50,0.20,-0.57,-0.19,
3.218,-2.67,-0.54,0.50,0.21,-0.67,-0.16,
3.218,-2.67,-0.54,0.50,0.22,-0.76,-0.13,
3.221,-2.30,-0.02,0.06,0.22,-0.76,-0.13,
3.222,-2.30,-0.02,0.06,0.22,-0.85,-0.11,
3.225,-2.30,-0.02,0.06,0.20,-0.95,-0.10,
3.226,-2.30,-0.02,0.06,0.18,-1.01,-0.09,
3.226,-1.75,1.01,-0.31,0.18,-1.01,-0.09,
3.229,-1.75,1.01,-0.31,0.16,-1.04,-0.09,
3.232,-1.08,2.01,-0.33,0.16,-1.04,-0.09,
3.232,-1.08,2.01,-0.33,0.14,-1.11,-0.09,
3.233,-1.08,2.01,-0.33,0.11,-1.19,-0.08,
3.237,-0.96,2.99,-0.33,0.11,-1.19,-0.08,
3.238,-0.96,2.99,-0.33,0.08,-1.24,-0.07,
3.238,-0.96,2.99,-0.33,0.05,-1.29,-0.05,
3.247,-0.95,3.76,-0.56,0.05,-1.29,-0.05,
3.247,-0.95,3.76,-0.56,0.02,-1.33,-0.02,
3.248,-0.95,3.76,-0.56,-0.01,-1.36,0.02,
3.249,-0.88,4.36,-0.92,-0.01,-1.36,0.02,
3.249,-0.88,4.36,-0.92,-0.05,-1.37,0.07,
3.25,-0.88,4.36,-0.92,-0.09,-1.35,0.13,
3.252,-0.56,4.57,-1.08,-0.09,-1.35,0.13,
3.253,-0.56,4.57,-1.08,-0.12,-1.33,0.18,
3.254,-0.56,4.57,-1.08,-0.15,-1.32,0.24,
3.264,-0.01,4.49,-0.84,-0.15,-1.32,0.24,
3.264,-0.01,4.49,-0.84,-0.17,-1.29,0.30,
3.265,-0.01,4.49,-0.84,-0.18,-1.28,0.35,
3.266,0.65,4.65,-0.28,-0.18,-1.28,0.35,
3.266,0.65,4.65,-0.28,-0.18,-1.27,0.40,
3.267,0.65,4.65,-0.28,-0.16,-1.28,0.43,
3.267,1.25,4.89,0.29,-0.16,-1.28,0.43,
3.268,1.25,4.89,0.29,-0.14,-1.30,0.45,
3.268,1.25,4.89,0.29,-0.11,-1.33,0.47,
3.272,1.69,5.41,0.68,-0.11,-1.33,0.47,
3.272,1.69,5.41,0.68,-0.08,-1.37,0.47,
3.275,1.69,5.41,0.68,-0.05,-1.39,0.47,
3.276,1.80,6.11,0.55,-0.05,-1.39,0.47,
3.277,1.80,6.11,0.55,-0.02,-1.40,0.46,
3.28,1.80,6.11,0.55,0.01,-1.38,0.43,
3.281,1.61,6.59,0.63,0.01,-1.38,0.43,
3.282,1.61,6.59,0.63,0.04,-1.36,0.40,
3.285,1.61,6.59,0.63,0.08,-1.34,0.37,
3.288,1.03,6.61,0.75,0.08,-1.34,0.37,
3.288,1.03,6.61,0.75,0.12,-1.29,0.34,
3.294,1.03,6.61,0.75,0.15,-1.23,0.33,
3.294,0.31,6.16,0.92,0.15,-1.23,0.33,
3.295,0.31,6.16,0.92,0.19,-1.18,0.32,
3.295,0.31,6.16,0.92,0.25,-1.14,0.32,
3.299,0.02,5.58,1.64,0.25,-1.14,0.32,
3.299,0.02,5.58,1.64,0.31,-1.12,0.31,
3.3,0.02,5.58,1.64,0.36,-1.11,0.31,
3.302,-0.29,5.22,1.96,0.36,-1.11,0.31,
3.303,-0.29,5.22,1.96,0.41,-1.12,0.31,
3.303,-0.29,5.22,1.96,0.46,-1.14,0.32,
3.306,-0.01,5.14,2.23,0.46,-1.14,0.32,
3.307,-0.01,5.14,2.23,0.50,-1.18,0.29,
3.309,-0.01,5.14,2.23,0.54,-1.22,0.20,
3.312,1.20,5.76,1.93,0.54,-1.22,0.20,
3.313,1.20,5.76,1.93,0.58,-1.25,0.08,
3.314,1.20,5.76,1.93,0.61,-1.31,-0.03,
3.317,1.19,7.16,2.58,0.61,-1.31,-0.03,
3.318,1.19,7.16,2.58,0.65,-1.41,-0.15,
3.32,1.19,7.16,2.58,0.66,-1.54,-0.22,
3.323,0.09,8.05,2.71,0.66,-1.54,-0.22,
3.325,0.09,8.05,2.71,0.67,-1.66,-0.29,
3.326,0.09,8.05,2.71,0.64,-1.83,-0.33,
3.326,-0.75,7.65,2.25,0.64,-1.83,-0.33,
3.326,-0.75,7.65,2.25,0.58,-2.00,-0.38,
3.331,-0.75,7.65,2.25,0.47,-2.12,-0.43,
3.332,-2.31,6.44,0.59,0.47,-2.12,-0.43,
3.332,-2.31,6.44,0.59,0.28,-2.31,-0.43,
3.336,-2.31,6.44,0.59,0.21,-2.41,-0.38,
3.336,-4.53,3.41,1.48,0.21,-2.41,-0.38,
3.344,-4.53,3.41,1.48,0.31,-2.42,-0.31,
3.345,-4.53,3.41,1.48,0.48,-2.42,-0.26,
3.345,-4.85,0.21,1.65,0.48,-2.42,-0.26,
3.346,-4.85,0.21,1.65,0.60,-2.38,-0.22,
3.346,-4.85,0.21,1.65,0.64,-2.30,-0.22,
3.346,-4.07,-1.92,-0.27,0.64,-2.30,-0.22,
3.347,-4.07,-1.92,-0.27,0.65,-2.23,-0.26,
3.349,-4.07,-1.92,-0.27,0.70,-2.27,-0.33,
3.352,-2.82,-1.45,2.22,0.70,-2.27,-0.33,
3.352,-2.82,-1.45,2.22,0.76,-2.41,-0.42,
3.357,-4.01,-2.02,1.30,0.76,-2.41,-0.42,
3.358,-4.01,-2.02,1.30,0.81,-2.58,-0.53,
3.359,-4.01,-2.02,1.30,0.84,-2.59,-0.56,
3.359,-4.01,-2.02,1.30,0.91,-2.66,-0.54,
3.362,-8.11,-3.65,2.59,0.91,-2.66,-0.54,
3.362,-8.11,-3.65,2.59,1.03,-2.75,-0.35,
3.365,-8.11,-3.65,2.59,1.16,-2.71,-0.01,
3.367,-11.86,-4.54,-0.55,1.16,-2.71,-0.01,
3.368,-11.86,-4.54,-0.55,1.29,-2.54,0.47,
3.369,-11.86,-4.54,-0.55,1.42,-2.29,1.04,
3.372,-11.92,-5.24,-3.63,1.42,-2.29,1.04,
3.374,-11.92,-5.24,-3.63,1.51,-2.00,1.63,
3.374,-11.92,-5.24,-3.63,1.57,-1.72,2.19,
3.377,-7.79,-7.20,-2.70,1.57,-1.72,2.19,
3.378,-7.79,-7.20,-2.70,1.69,-1.56,2.64,
3.379,-7.79,-7.20,-2.70,1.96,-1.55,2.94,
3.382,-7.79,-7.20,-2.70,2.21,-1.55,3.16,
3.383,-2.70,-9.44,0.70,2.21,-1.55,3.16,
3.383,-2.70,-9.44,0.70,2.33,-1.48,3.33,
3.386,0.25,-9.03,-3.66,2.33,-1.48,3.33,
3.386,0.25,-9.03,-3.66,2.31,-1.40,3.46,
3.393,2.15,-7.86,-7.90,2.31,-1.40,3.46,
3.394,2.15,-7.86,-7.90,2.15,-1.29,3.56,
3.395,2.15,-7.86,-7.90,1.93,-1.09,3.65,
3.395,2.15,-7.86,-7.90,1.69,-0.80,3.72,
3.398,4.34,-7.09,-9.96,1.69,-0.80,3.72,
3.399,4.34,-7.09,-9.96,1.45,-0.44,3.76,
3.4,4.34,-7.09,-9.96,1.22,-0.05,3.76,
3.403,7.44,-6.31,-8.13,1.22,-0.05,3.76,
3.404,7.44,-6.31,-8.13,1.00,0.30,3.72,
3.404,7.44,-6.31,-8.13,0.81,0.52,3.64,
3.409,9.04,-6.15,-2.48,0.81,0.52,3.64,
3.41,9.04,-6.15,-2.48,0.70,0.58,3.53,
3.411,9.04,-6.15,-2.48,0.65,0.52,3.38,
3.412,8.88,-6.40,2.44,0.65,0.52,3.38,
3.413,8.88,-6.40,2.44,0.62,0.39,3.21,
3.415,8.88,-6.40,2.44,0.60,0.23,3.03,
3.418,7.99,-6.42,3.74,0.60,0.23,3.03,
3.419,7.99,-6.42,3.74,0.58,0.08,2.85,
3.419,7.99,-6.42,3.74,0.56,-0.07,2.67,
3.425,6.83,-6.32,3.50,0.56,-0.07,2.67,
3.426,6.83,-6.32,3.50,0.53,-0.22,2.51,
3.429,5.71,-5.81,2.89,0.53,-0.22,2.51,
3.43,5.71,-5.81,2.89,0.49,-0.37,2.36,
3.43,5.71,-5.81,2.89,0.46,-0.51,2.21,
3.431,5.71,-5.81,2.89,0.42,-0.65,2.08,
3.435,4.08,-5.40,2.19,0.42,-0.65,2.08,
3.436,4.08,-5.40,2.19,0.39,-0.78,1.97,
3.444,2.19,-4.82,1.77,0.39,-0.78,1.97,
3.445,2.19,-4.82,1.77,0.35,-0.92,1.86,
3.446,2.19,-4.82,1.77,0.32,-1.07,1.78,
3.446,2.19,-4.82,1.77,0.30,-1.20,1.70,
3.447,0.86,-4.12,1.44,0.30,-1.20,1.70,
3.447,0.86,-4.12,1.44,0.28,-1.33,1.63,
3.448,0.86,-4.12,1.44,0.27,-1.46,1.56,
3.448,0.46,-3.25,1.00,0.27,-1.46,1.56,
3.449,0.46,-3.25,1.00,0.26,-1.57,1.49,
3.449,0.46,-3.25,1.00,0.26,-1.69,1.42,
3.452,0.94,-2.27,0.65,0.26,-1.69,1.42,
3.453,0.94,-2.27,0.65,0.27,-1.81,1.35,
3.462,0.94,-2.27,0.65,0.28,-1.94,1.28,
3.463,1.13,-1.31,0.49,0.28,-1.94,1.28,
3.463,1.13,-1.31,0.49,0.31,-2.06,1.23,
3.464,1.13,-1.31,0.49,0.34,-2.15,1.18,
3.464,0.51,-0.74,0.06,0.34,-2.15,1.18,
3.465,0.51,-0.74,0.06,0.37,-2.22,1.15,
3.465,0.51,-0.74,0.06,0.40,-2.25,1.12,
3.467,0.03,-0.36,-0.51,0.40,-2.25,1.12,
3.467,0.03,-0.36,-0.51,0.43,-2.24,1.11,
3.468,0.03,-0.36,-0.51,0.46,-2.19,1.10,
3.471,0.01,-0.04,-0.96,0.46,-2.19,1.10,
3.472,0.01,-0.04,-0.96,0.49,-2.12,1.09,
3.476,0.01,-0.04,-0.96,0.50,-2.03,1.08,
3.477,-0.29,0.08,-1.18,0.50,-2.03,1.08,
3.478,-0.29,0.08,-1.18,0.51,-1.93,1.08,
3.48,-0.29,0.08,-1.18,0.51,-1.83,1.08,
3.482,-0.72,-0.15,-1.31,0.51,-1.83,1.08,
3.482,-0.72,-0.15,-1.31,0.50,-1.67,1.10,
3.483,-0.72,-0.15,-1.31,0.49,-1.47,1.10,
3.487,0.95,0.18,-1.14,0.49,-1.47,1.10,
3.488,0.95,0.18,-1.14,0.46,-1.29,1.09,
3.491,0.95,0.18,-1.14,0.42,-1.13,1.09,
3.492,1.08,0.32,-0.96,0.42,-1.13,1.09,
3.492,1.08,0.32,-0.96,0.38,-1.01,1.09,
3.494,1.08,0.32,-0.96,0.34,-0.96,1.10,
3.499,-0.06,0.28,-0.19,0.34,-0.96,1.10,
3.499,-0.06,0.28,-0.19,0.31,-0.95,1.11,
3.5,-0.06,0.28,-0.19,0.29,-0.96,1.13,
3.505,-1.13,0.08,0.35,0.29,-0.96,1.13,
3.506,-1.13,0.08,0.35,0.28,-0.98,1.16,
3.506,-1.13,0.08,0.35,0.28,-1.00,1.18,
3.508,-1.53,-0.02,0.31,0.28,-1.00,1.18,
3.509,-1.53,-0.02,0.31,0.28,-0.99,1.20,
3.51,-1.53,-0.02,0.31,0.28,-0.97,1.21,
3.512,-0.65,-0.46,0.17,0.28,-0.97,1.21,
3.513,-0.65,-0.46,0.17,0.27,-0.90,1.20,
3.514,-0.65,-0.46,0.17,0.26,-0.84,1.11,
3.517,1.33,-1.95,-0.13,0.26,-0.84,1.11,
3.518,1.33,-1.95,-0.13,0.23,-0.77,0.94,
3.519,1.33,-1.95,-0.13,0.19,-0.71,0.71,
3.522,1.17,-4.05,-0.56,0.19,-0.71,0.71,
3.523,1.17,-4.05,-0.56,0.15,-0.66,0.44,
3.525,1.17,-4.05,-0.56,0.09,-0.62,0.15,
3.528,0.45,-5.01,-0.95,0.09,-0.62,0.15,
3.529,0.45,-5.01,-0.95,0.04,-0.57,-0.12,
3.529,0.45,-5.01,-0.95,-0.02,-0.52,-0.37,
3.532,-0.59,-4.93,-1.24,-0.02,-0.52,-0.37,
3.532,-0.59,-4.93,-1.24,-0.06,-0.48,-0.55,
3.534,-0.59,-4.93,-1.24,-0.09,-0.46,-0.64,
3.537,-1.62,-2.67,-0.63,-0.09,-0.46,-0.64,
3.538,-1.62,-2.67,-0.63,-0.10,-0.47,-0.65,
3.541,-1.62,-2.67,-0.63,-0.11,-0.49,-0.61,
3.542,-1.12,-0.76,-0.32,-0.11,-0.49,-0.61,
3.542,-1.12,-0.76,-0.32,-0.11,-0.52,-0.56,
3.545,-1.12,-0.76,-0.32,-0.12,-0.55,-0.52,
3.547,0.12,-0.11,-0.08,-0.12,-0.55,-0.52,
3.547,0.12,-0.11,-0.08,-0.13,-0.61,-0.51,
3.549,0.12,-0.11,-0.08,-0.15,-0.71,-0.51,
3.554,0.33,-0.12,0.44,-0.15,-0.71,-0.51,
3.554,0.33,-0.12,0.44,-0.16,-0.80,-0.52,
3.555,0.33,-0.12,0.44,-0.17,-0.88,-0.53,
3.557,-0.05,-0.15,0.49,-0.17,-0.88,-0.53,
3.557,-0.05,-0.15,0.49,-0.18,-0.95,-0.55,
3.559,-0.05,-0.15,0.49,-0.19,-0.99,-0.57,
3.563,-1.17,-0.04,0.06,-0.19,-0.99,-0.57,
3.563,-1.17,-0.04,0.06,-0.21,-0.99,-0.58,
3.564,-1.17,-0.04,0.06,-0.23,-0.97,-0.57,
3.567,-2.29,0.10,-0.28,-0.23,-0.97,-0.57,
3.568,-2.29,0.10,-0.28,-0.25,-0.93,-0.56,
3.57,-2.29,0.10,-0.28,-0.26,-0.89,-0.53,
3.573,-2.59,0.18,-0.27,-0.26,-0.89,-0.53,
3.573,-2.59,0.18,-0.27,-0.26,-0.84,-0.50,
3.575,-2.59,0.18,-0.27,-0.26,-0.77,-0.46,
3.577,-2.44,0.29,-0.29,-0.26,-0.77,-0.46,
3.578,-2.44,0.29,-0.29,-0.25,-0.70,-0.43,
3.581,-2.44,0.29,-0.29,-0.24,-0.60,-0.39,
3.582,-2.29,0.55,-0.44,-0.24,-0.60,-0.39,
3.582,-2.29,0.55,-0.44,-0.22,-0.50,-0.35,
3.585,-2.29,0.55,-0.44,-0.20,-0.41,-0.30,
3.587,-2.23,0.55,-0.52,-0.20,-0.41,-0.30,
3.588,-2.23,0.55,-0.52,-0.18,-0.30,-0.25,
3.59,-2.23,0.55,-0.52,-0.17,-0.18,-0.20,
3.593,-2.27,0.58,-0.79,-0.17,-0.18,-0.20,
3.594,-2.27,0.58,-0.79,-0.15,-0.05,-0.15,
3.595,-2.27,0.58,-0.79,-0.13,0.06,-0.11,
3.598,-2.14,0.56,-0.20,-0.13,0.06,-0.11,
3.599,-2.14,0.56,-0.20,-0.12,0.11,-0.09,
3.6,-2.14,0.56,-0.20,-0.08,0.11,-0.10,
3.602,-1.09,1.72,0.92,-0.08,0.11,-0.10,
3.603,-1.09,1.72,0.92,-0.05,0.10,-0.13,
3.606,-1.09,1.72,0.92,-0.03,0.10,-0.14,
3.607,-1.37,1.70,0.57,-0.03,0.10,-0.14,
3.607,-1.37,1.70,0.57,-0.03,0.09,-0.14,
3.61,-1.37,1.70,0.57,-0.04,0.08,-0.13,
3.612,-1.20,1.02,0.33,-0.04,0.08,-0.13,
3.613,-1.20,1.02,0.33,-0.05,0.06,-0.13,
3.614,-1.20,1.02,0.33,-0.08,0.06,-0.13,
3.618,-0.32,0.64,0.14,-0.08,0.06,-0.13,
3.618,-0.32,0.64,0.14,-0.10,0.07,-0.14,
3.619,-0.32,0.64,0.14,-0.10,0.06,-0.16,
3.622,0.75,0.71,0.78,-0.10,0.06,-0.16,
3.623,0.75,0.71,0.78,-0.09,0.03,-0.20,
3.625,0.75,0.71,0.78,-0.07,-0.03,-0.26,
3.627,1.15,0.93,1.13,-0.07,-0.03,-0.26,
3.628,1.15,0.93,1.13,-0.05,-0.07,-0.30,
3.63,1.15,0.93,1.13,-0.03,-0.08,-0.34,
3.632,1.40,0.84,0.44,-0.03,-0.08,-0.34,
3.633,1.40,0.84,0.44,-0.02,-0.07,-0.36,
3.634,1.40,0.84,0.44,-0.03,-0.08,-0.42,
3.639,4.55,0.59,-0.44,-0.03,-0.08,-0.42,
3.639,4.55,0.59,-0.44,-0.08,-0.06,-0.53,
3.64,4.55,0.59,-0.44,-0.16,0.00,-0.61,
3.643,2.57,-0.48,-0.79,-0.16,0.00,-0.61,
3.644,2.57,-0.48,-0.79,-0.23,0.07,-0.63,
3.644,2.57,-0.48,-0.79,-0.30,0.13,-0.63,
3.647,0.70,-1.52,-0.09,-0.30,0.13,-0.63,
3.648,0.70,-1.52,-0.09,-0.37,0.19,-0.62,
3.65,0.70,-1.52,-0.09,-0.43,0.21,-0.61,
3.653,-0.85,-1.57,0.89,-0.43,0.21,-0.61,
3.653,-0.85,-1.57,0.89,-0.46,0.24,-0.59,
3.659,-4.49,-1.51,0.98,-0.46,0.24,-0.59,
3.66,-4.49,-1.51,0.98,-0.46,0.33,-0.54,
3.66,-4.49,-1.51,0.98,-0.43,0.48,-0.47,
3.661,-4.49,-1.51,0.98,-0.40,0.71,-0.39,
3.663,-4.49,-1.51,0.98,-0.37,1.02,-0.30,
3.664,-8.16,-1.42,0.06,-0.37,1.02,-0.30,
3.669,-3.51,-0.03,-0.26,-0.37,1.02,-0.30,
3.671,-3.51,-0.03,-0.26,-0.36,1.37,-0.19,
3.678,7.38,2.86,3.15,-0.36,1.37,-0.19,
3.679,7.38,2.86,3.15,-0.35,1.51,-0.13,
3.679,7.38,2.86,3.15,-0.35,1.26,-0.14,
3.68,7.38,2.86,3.15,-0.35,0.80,-0.18,
3.68,7.38,2.86,3.15,-0.33,0.34,-0.23,
3.681,8.46,3.71,2.91,-0.33,0.34,-0.23,
3.682,8.46,3.71,2.91,-0.29,-0.07,-0.25,
3.682,8.46,3.71,2.91,-0.24,-0.37,-0.23,
3.683,2.81,2.19,0.94,-0.24,-0.37,-0.23,
3.683,2.81,2.19,0.94,-0.19,-0.60,-0.20,
3.686,2.81,2.19,0.94,-0.15,-0.76,-0.18,
3.689,-0.19,0.12,-1.37,-0.15,-0.76,-0.18,
3.689,-0.19,0.12,-1.37,-0.12,-0.81,-0.18,
3.69,-0.19,0.12,-1.37,-0.09,-0.75,-0.18,
3.694,-2.00,-1.59,-3.17,-0.09,-0.75,-0.18,
3.695,-2.00,-1.59,-3.17,-0.06,-0.61,-0.19,
3.696,-2.00,-1.59,-3.17,-0.02,-0.43,-0.22,
3.699,-1.28,-2.16,-3.16,-0.02,-0.43,-0.22,
3.699,-1.28,-2.16,-3.16,0.05,-0.23,-0.25,
3.7,-1.28,-2.16,-3.16,0.12,-0.02,-0.28,
3.703,0.18,-1.29,-2.86,0.12,-0.02,-0.28,
3.704,0.18,-1.29,-2.86,0.19,0.20,-0.29,
3.704,0.18,-1.29,-2.86,0.25,0.41,-0.30,
3.708,0.18,-1.29,-2.86,0.29,0.61,-0.29,
3.709,0.96,-0.68,-2.58,0.29,0.61,-0.29,
3.71,0.96,-0.68,-2.58,0.31,0.79,-0.25,
3.715,0.10,-0.50,-1.99,0.31,0.79,-0.25,
3.715,0.10,-0.50,-1.99,0.31,0.93,-0.18,
3.716,0.10,-0.50,-1.99,0.30,1.02,-0.12,
3.719,-1.53,-1.12,-1.64,0.30,1.02,-0.12,
3.72,-1.53,-1.12,-1.64,0.25,1.10,-0.01,
3.72,-1.53,-1.12,-1.64,0.15,1.14,0.09,
3.724,-1.26,-2.90,-1.19,0.15,1.14,0.09,
3.725,-1.26,-2.90,-1.19,0.03,1.12,0.14,
3.726,-1.26,-2.90,-1.19,-0.06,1.01,0.11,
3.728,0.07,-4.07,1.45,-0.06,1.01,0.11,
3.729,0.07,-4.07,1.45,-0.12,0.85,0.03,
3.73,0.07,-4.07,1.45,-0.14,0.70,-0.05,
3.733,-1.04,-2.74,2.42,-0.14,0.70,-0.05,
3.734,-1.04,-2.74,2.42,-0.14,0.54,-0.10,
3.735,-1.04,-2.74,2.42,-0.14,0.41,-0.12,
3.738,-1.04,-2.74,2.42,-0.15,0.31,-0.12,
3.746,-2.08,-0.86,1.63,-0.15,0.31,-0.12,
3.747,-2.16,0.24,0.85,-0.15,0.31,-0.12,
3.747,-2.16,0.24,0.85,-0.16,0.21,-0.10,
3.748,-2.16,0.24,0.85,-0.18,0.12,-0.07,
3.748,-2.16,0.24,0.85,-0.20,0.01,-0.05,
3.749,-1.69,0.43,0.96,-0.20,0.01,-0.05,
3.749,-1.69,0.43,0.96,-0.21,-0.11,-0.03,
3.75,-1.69,0.43,0.96,-0.23,-0.23,-0.02,
3.755,-0.86,0.42,0.64,-0.23,-0.23,-0.02,
3.756,-0.86,0.42,0.64,-0.23,-0.31,-0.03,
3.756,-0.86,0.42,0.64,-0.23,-0.36,-0.04,
3.758,-0.06,0.63,-0.16,-0.23,-0.36,-0.04,
3.759,-0.06,0.63,-0.16,-0.23,-0.36,-0.06,
3.762,-0.06,0.63,-0.16,-0.21,-0.33,-0.08,
3.762,1.11,1.17,-0.54,-0.21,-0.33,-0.08,
3.763,1.11,1.17,-0.54,-0.18,-0.27,-0.11,
3.766,1.11,1.17,-0.54,-0.14,-0.19,-0.14,
3.767,1.72,1.54,-0.61,-0.14,-0.19,-0.14,
3.767,1.72,1.54,-0.61,-0.09,-0.11,-0.16,
3.77,1.72,1.54,-0.61,-0.04,-0.02,-0.18,
3.774,1.89,1.47,-0.47,-0.04,-0.02,-0.18,
3.775,1.89,1.47,-0.47,0.01,0.06,-0.19,
3.775,1.89,1.47,-0.47,0.06,0.13,-0.20,
3.777,1.89,1.47,-0.47,0.10,0.18,-0.21,
3.778,2.00,1.12,-0.35,0.10,0.18,-0.21,
3.781,2.00,1.12,-0.35,0.14,0.23,-0.22,
3.783,1.98,0.79,-0.37,0.14,0.23,-0.22,
3.784,1.98,0.79,-0.37,0.16,0.27,-0.23,
3.785,1.98,0.79,-0.37,0.18,0.31,-0.24,
3.788,1.98,0.71,-0.42,0.18,0.31,-0.24,
3.789,1.98,0.71,-0.42,0.20,0.34,-0.26,
3.791,1.98,0.71,-0.42,0.20,0.37,-0.27,
3.797,1.92,0.74,-0.56,0.20,0.37,-0.27,
3.798,1.92,0.74,-0.56,0.21,0.40,-0.28,
3.798,1.92,0.74,-0.56,0.20,0.43,-0.29,
3.799,1.92,0.74,-0.56,0.19,0.47,-0.31,
3.799,2.17,0.92,-0.67,0.19,0.47,-0.31,
3.799,2.17,0.92,-0.67,0.18,0.50,-0.32,
3.803,1.85,0.90,-0.61,0.18,0.50,-0.32,
3.803,1.85,0.90,-0.61,0.17,0.53,-0.33,
3.809,-4.33,-1.14,-1.14,0.17,0.53,-0.33,
3.809,-4.33,-1.14,-1.14,0.16,0.57,-0.31,
3.81,-4.33,-1.14,-1.14,0.13,0.65,-0.17,
3.81,-4.33,-1.14,-1.14,0.11,0.64,-0.09,
3.814,-3.43,-2.00,0.65,0.11,0.64,-0.09,
3.815,-3.43,-2.00,0.65,0.10,0.56,-0.09,
3.815,-3.43,-2.00,0.65,0.10,0.47,-0.13,
3.818,1.20,0.02,1.04,0.10,0.47,-0.13,
3.819,1.20,0.02,1.04,0.09,0.42,-0.18,
3.819,1.20,0.02,1.04,0.08,0.42,-0.20,
3.824,1.02,1.10,-0.18,0.08,0.42,-0.20,
3.825,1.02,1.10,-0.18,0.06,0.46,-0.20,
3.826,1.02,1.10,-0.18,0.04,0.60,-0.09,
3.828,-2.02,0.18,-0.71,0.04,0.60,-0.09,
3.828,-2.02,0.18,-0.71,0.03,0.68,-0.05,
3.83,-2.02,0.18,-0.71,0.02,0.69,-0.10,
3.833,2.64,0.39,0.05,0.02,0.69,-0.10,
3.834,2.64,0.39,0.05,0.02,0.69,-0.18,
3.839,2.64,0.39,0.05,0.01,0.72,-0.24,
3.841,2.63,0.59,-0.49,0.01,0.72,-0.24,
3.842,2.63,0.59,-0.49,0.01,0.77,-0.28,
3.843,2.63,0.59,-0.49,0.01,0.83,-0.30,
3.844,1.35,0.20,-0.78,0.01,0.83,-0.30,
3.844,1.35,0.20,-0.78,0.01,0.88,-0.30,
3.856,1.27,-0.61,-0.37,0.01,0.88,-0.30,
3.857,1.27,-0.61,-0.37,0.01,0.90,-0.31,
3.857,1.27,-0.61,-0.37,0.01,0.89,-0.34,
3.858,1.27,-0.61,-0.37,0.02,0.86,-0.38,
3.859,2.27,-0.95,0.02,0.02,0.86,-0.38,
3.86,2.27,-0.95,0.02,0.02,0.82,-0.43,
3.86,2.27,-0.95,0.02,0.03,0.77,-0.47,
3.86,2.47,-1.05,-0.06,0.03,0.77,-0.47,
3.861,2.47,-1.05,-0.06,0.03,0.72,-0.50,
3.861,2.47,-1.05,-0.06,0.03,0.67,-0.54,
3.863,1.47,-1.24,-0.26,0.03,0.67,-0.54,
3.864,1.47,-1.24,-0.26,0.03,0.62,-0.54,
3.865,1.47,-1.24,-0.26,0.04,0.57,-0.55,
3.867,0.33,-1.49,-0.24,0.04,0.57,-0.55,
3.867,0.33,-1.49,-0.24,0.04,0.53,-0.55,
3.87,0.33,-1.49,-0.24,0.04,0.52,-0.52,
3.874,-0.86,-1.65,-0.08,0.04,0.52,-0.52,
3.875,-0.86,-1.65,-0.08,0.05,0.48,-0.50,
3.875,-0.86,-1.65,-0.08,0.07,0.44,-0.48,
3.879,-0.96,-1.48,0.21,0.07,0.44,-0.48,
3.879,-0.96,-1.48,0.21,0.09,0.41,-0.48,
3.88,-0.96,-1.48,0.21,0.10,0.39,-0.47,
3.883,-1.15,-0.99,0.06,0.10,0.39,-0.47,
3.883,-1.15,-0.99,0.06,0.11,0.39,-0.46,
3.886,-1.15,-0.99,0.06,0.11,0.41,-0.43,
3.891,-1.15,-0.99,0.06,0.11,0.43,-0.41,
3.892,-1.07,-0.29,-0.40,0.11,0.43,-0.41,
3.893,-1.07,-0.29,-0.40,0.12,0.43,-0.41,
3.894,-0.72,-0.08,0.16,0.12,0.43,-0.41,
3.895,-0.72,-0.08,0.16,0.12,0.43,-0.41,
3.895,-0.72,-0.08,0.16,0.13,0.44,-0.41,
3.898,0.03,0.50,0.05,0.13,0.44,-0.41,
3.899,0.03,0.50,0.05,0.13,0.45,-0.41,
3.9,0.03,0.50,0.05,0.13,0.46,-0.43,
3.903,0.85,0.88,0.20,0.13,0.46,-0.43,
3.904,0.85,0.88,0.20,0.13,0.48,-0.45,
3.907,0.85,0.88,0.20,0.14,0.48,-0.47,
3.91,0.85,0.88,0.20,0.14,0.51,-0.48,
3.911,1.06,0.98,0.23,0.14,0.51,-0.48,
3.911,1.06,0.98,0.23,0.14,0.54,-0.48,
3.912,1.75,1.04,-0.04,0.14,0.54,-0.48,
3.913,1.75,1.04,-0.04,0.16,0.61,-0.53,
3.917,1.75,1.04,-0.04,0.17,0.67,-0.54,
3.918,-0.47,0.39,0.17,0.17,0.67,-0.54,
3.921,-0.47,0.39,0.17,0.17,0.62,-0.46,
3.922,-0.47,0.39,0.17,0.20,0.67,-0.46,
3.925,0.21,-0.12,0.29,0.20,0.67,-0.46,
3.926,0.21,-0.12,0.29,0.21,0.69,-0.46,
3.927,0.21,-0.12,0.29,0.24,0.70,-0.45,
3.929,0.55,-0.30,0.51,0.24,0.70,-0.45,
3.93,0.55,-0.30,0.51,0.27,0.74,-0.49,
3.93,0.55,-0.30,0.51,0.30,0.76,-0.49,
3.934,0.20,-0.10,0.40,0.30,0.76,-0.49,
3.934,0.20,-0.10,0.40,0.33,0.75,-0.49,
3.935,0.20,-0.10,0.40,0.35,0.74,-0.49,
3.941,-0.18,-0.10,0.69,0.35,0.74,-0.49,
3.942,-0.18,-0.10,0.69,0.37,0.69,-0.48,
3.945,-0.18,-0.10,0.69,0.38,0.62,-0.47,
3.946,-1.09,-0.26,0.92,0.38,0.62,-0.47,
3.946,-1.09,-0.26,0.92,0.40,0.54,-0.44,
3.947,-1.09,-0.26,0.92,0.41,0.49,-0.43,
3.948,-0.83,0.06,0.69,0.41,0.49,-0.43,
3.949,-0.83,0.06,0.69,0.44,0.46,-0.44,
3.95,-0.83,0.06,0.69,0.45,0.44,-0.44,
3.952,-1.32,0.51,-0.09,0.45,0.44,-0.44,
3.954,-1.32,0.51,-0.09,0.44,0.40,-0.41,
3.961,-1.32,0.51,-0.09,0.42,0.34,-0.34,
3.962,-2.38,0.14,-0.01,0.42,0.34,-0.34,
3.963,-2.38,0.14,-0.01,0.40,0.27,-0.31,
3.963,-2.38,0.14,-0.01,0.40,0.28,-0.28,
3.964,-2.02,0.49,-0.35,0.40,0.28,-0.28,
3.964,-2.02,0.49,-0.35,0.41,0.30,-0.26,
3.965,-2.02,0.49,-0.35,0.41,0.30,-0.25,
3.97,-1.07,0.42,-0.45,0.41,0.30,-0.25,
3.971,-1.07,0.42,-0.45,0.40,0.27,-0.23,
3.971,-1.07,0.42,-0.45,0.38,0.30,-0.22,
3.974,-0.61,0.76,-1.42,0.38,0.30,-0.22,
3.975,-0.61,0.76,-1.42,0.38,0.39,-0.23,
3.976,-0.61,0.76,-1.42,0.36,0.39,-0.21,
3.978,-0.75,0.67,-0.93,0.36,0.39,-0.21,
3.979,-0.75,0.67,-0.93,0.34,0.35,-0.19,
3.98,-0.75,0.67,-0.93,0.33,0.40,-0.17,
3.983,-0.85,0.89,-1.24,0.33,0.40,-0.17,
3.984,-0.85,0.89,-1.24,0.35,0.48,-0.17,
3.985,-0.85,0.89,-1.24,0.33,0.47,-0.15,
3.988,-1.07,0.27,-0.68,0.33,0.47,-0.15,
3.989,-1.07,0.27,-0.68,0.31,0.40,-0.11,
3.99,-1.07,0.27,-0.68,0.30,0.31,-0.10,
3.993,-1.06,0.06,-0.21,0.30,0.31,-0.10,
3.994,-1.06,0.06,-0.21,0.30,0.29,-0.09,
3.997,-1.06,0.06,-0.21,0.30,0.32,-0.05,
3.998,-1.31,0.23,-0.90,0.30,0.32,-0.05,
3.999,-1.31,0.23,-0.90,0.28,0.30,-0.03,
4.001,-1.31,0.23,-0.90,0.27,0.28,-0.02,
4.005,-0.21,0.20,-1.09,0.27,0.28,-0.02,
4.005,-0.21,0.20,-1.09,0.26,0.28,-0.02,
4.006,-0.21,0.20,-1.09,0.24,0.24,-0.02,
4.01,0.42,0.06,-0.62,0.24,0.24,-0.02,
4.011,0.42,0.06,-0.62,0.21,0.15,-0.02,
4.011,0.42,0.06,-0.62,0.19,0.08,-0.03,
4.013,0.04,0.47,-0.70,0.19,0.08,-0.03,
4.014,0.04,0.47,-0.70,0.17,0.03,-0.02,
4.016,0.04,0.47,-0.70,0.16,0.05,0.01,
4.018,-0.81,0.52,-1.28,0.16,0.05,0.01,
4.018,-0.81,0.52,-1.28,0.16,0.09,0.03,
4.02,-0.81,0.52,-1.28,0.15,0.09,0.02,
4.029,0.48,0.48,-0.75,0.15,0.09,0.02,
4.03,0.48,0.48,-0.75,0.14,0.06,0.01,
4.03,0.48,0.48,-0.75,0.14,0.01,0.01,
4.031,0.26,0.44,-0.49,0.14,0.01,0.01,
4.031,0.26,0.44,-0.49,0.12,-0.03,0.01,
4.032,0.26,0.44,-0.49,0.12,-0.03,0.05,
4.037,-1.55,-0.17,-0.96,0.12,-0.03,0.05,
4.037,-1.55,-0.17,-0.96,0.10,-0.01,0.09,
4.038,-1.55,-0.17,-0.96,0.09,0.01,0.11,
4.041,-1.71,-0.61,-0.72,0.09,0.01,0.11,
4.042,-1.71,-0.61,-0.72,0.07,0.02,0.13,
4.043,-1.71,-0.61,-0.72,0.07,0.02,0.14,
4.043,-1.73,-0.71,-0.39,0.07,0.02,0.14,
4.043,-1.73,-0.71,-0.39,0.06,0.02,0.16,
4.047,-1.73,-0.71,-0.39,0.05,0.01,0.16,
4.049,-1.73,-0.71,-0.39,0.04,-0.00,0.17,
4.049,-1.44,-0.38,-0.33,0.04,-0.00,0.17,
4.05,-1.44,-0.38,-0.33,0.02,-0.01,0.19,
4.054,-1.44,-0.38,-0.33,0.01,-0.02,0.22,
4.055,-1.70,-0.07,-0.36,0.01,-0.02,0.22,
4.057,-1.70,-0.07,-0.36,0.00,-0.03,0.24,
4.058,-1.70,-0.07,-0.36,-0.01,-0.05,0.26,
4.058,-1.92,0.05,-0.35,-0.01,-0.05,0.26,
4.061,-1.92,0.05,-0.35,-0.02,-0.08,0.29,
4.064,-2.90,-0.24,-0.30,-0.02,-0.08,0.29,
4.065,-2.90,-0.24,-0.30,-0.04,-0.13,0.34,
4.066,-2.90,-0.24,-0.30,-0.06,-0.17,0.42,
4.069,-3.46,-0.41,-0.35,-0.06,-0.17,0.42,
4.069,-3.46,-0.41,-0.35,-0.08,-0.20,0.45,
4.071,-3.46,-0.41,-0.35,-0.09,-0.28,0.46,
4.073,-2.29,-0.11,-0.06,-0.09,-0.28,0.46,
4.074,-2.29,-0.11,-0.06,-0.11,-0.36,0.47,
4.075,-2.29,-0.11,-0.06,-0.14,-0.43,0.50,
4.078,-2.12,0.17,-0.61,-0.14,-0.43,0.50,
4.078,-2.12,0.17,-0.61,-0.17,-0.48,0.52,
4.082,-2.12,0.17,-0.61,-0.21,-0.54,0.53,
4.084,-1.32,0.32,-0.68,-0.21,-0.54,0.53,
4.084,-1.32,0.32,-0.68,-0.24,-0.61,0.55,
4.086,-1.32,0.32,-0.68,-0.29,-0.68,0.58,
4.089,-1.51,0.03,-0.78,-0.29,-0.68,0.58,
4.089,-1.51,0.03,-0.78,-0.33,-0.76,0.61,
4.092,-1.51,0.03,-0.78,-0.37,-0.82,0.65,
4.093,-1.89,-0.12,-0.78,-0.37,-0.82,0.65,
4.094,-1.89,-0.12,-0.78,-0.41,-0.88,0.68,
4.096,-1.89,-0.12,-0.78,-0.44,-0.96,0.71,
4.099,-2.03,-0.15,-0.61,-0.44,-0.96,0.71,
4.1,-2.03,-0.15,-0.61,-0.47,-1.02,0.73,
4.101,-2.03,-0.15,-0.61,-0.49,-1.06,0.74,
4.104,-2.30,0.05,-0.53,-0.49,-1.06,0.74,
4.104,-2.30,0.05,-0.53,-0.52,-1.13,0.77,
4.107,-2.30,0.05,-0.53,-0.54,-1.21,0.80,
4.109,-2.83,0.08,-0.37,-0.54,-1.21,0.80,
4.11,-2.83,0.08,-0.37,-0.56,-1.26,0.83,
4.11,-2.83,0.08,-0.37,-0.57,-1.29,0.86,
4.114,-2.88,0.33,-0.41,-0.57,-1.29,0.86,
4.115,-2.88,0.33,-0.41,-0.59,-1.33,0.89,
4.116,-2.88,0.33,-0.41,-0.60,-1.38,0.93,
4.119,-2.70,0.46,-0.23,-0.60,-1.38,0.93,
4.12,-2.70,0.46,-0.23,-0.60,-1.40,0.97,
4.121,-2.70,0.46,-0.23,-0.61,-1.41,1.01,
4.125,-2.39,0.54,-0.17,-0.61,-1.41,1.01,
4.126,-2.39,0.54,-0.17,-0.62,-1.44,1.05,
4.126,-2.39,0.54,-0.17,-0.62,-1.47,1.09,
4.129,-2.00,0.52,0.00,-0.62,-1.47,1.09,
4.13,-2.00,0.52,0.00,-0.63,-1.51,1.13,
4.13,-2.00,0.52,0.00,-0.63,-1.53,1.16,
4.135,-1.31,0.46,-0.00,-0.63,-1.53,1.16,
4.135,-1.31,0.46,-0.00,-0.63,-1.54,1.18,
4.136,-1.31,0.46,-0.00,-0.63,-1.57,1.20,
4.14,-0.61,0.49,0.25,-0.63,-1.57,1.20,
4.14,-0.61,0.49,0.25,-0.62,-1.61,1.21,
4.144,-0.61,0.49,0.25,-0.61,-1.65,1.22,
4.145,0.15,0.52,0.47,-0.61,-1.65,1.22,
4.146,0.15,0.52,0.47,-0.60,-1.68,1.22,
4.146,0.15,0.52,0.47,-0.57,-1.74,1.20,
4.15,0.15,0.52,0.47,-0.55,-1.82,1.18,
4.151,0.98,0.77,0.77,-0.55,-1.82,1.18,
4.153,0.98,0.77,0.77,-0.54,-1.95,1.17,
4.154,0.52,0.87,0.83,-0.54,-1.95,1.17,
4.154,0.52,0.87,0.83,-0.54,-2.09,1.17,
4.165,0.52,0.87,0.83,-0.55,-2.14,1.21,
4.167,-0.37,0.23,-0.85,-0.55,-2.14,1.21,
4.167,-0.37,0.23,-0.85,-0.56,-2.07,1.25,
4.168,-0.37,0.23,-0.85,-0.57,-1.94,1.28,
4.169,0.74,-0.14,-1.80,-0.57,-1.94,1.28,
4.169,0.74,-0.14,-1.80,-0.58,-1.80,1.31,
4.17,0.74,-0.14,-1.80,-0.57,-1.65,1.32,
4.186,1.90,-0.16,-1.37,-0.57,-1.65,1.32,
4.193,3.02,-0.02,-1.88,-0.57,-1.65,1.32,
4.194,3.02,-0.02,-1.88,-0.56,-1.52,1.33,
4.194,3.02,-0.02,-1.88,-0.54,-1.37,1.33,
4.195,3.02,-0.02,-1.88,-0.54,-1.17,1.32,
4.195,3.02,-0.02,-1.88,-0.57,-0.89,1.30,
4.196,4.37,0.09,-3.09,-0.57,-0.89,1.30,
4.196,4.37,0.09,-3.09,-0.60,-0.63,1.26,
4.197,4.37,0.09,-3.09,-0.59,-0.45,1.21,
4.197,5.39,-0.52,-0.17,-0.59,-0.45,1.21,
4.198,5.39,-0.52,-0.17,-0.54,-0.36,1.13,
4.198,5.39,-0.52,-0.17,-0.45,-0.32,1.04,
4.198,5.92,-1.24,1.63,-0.45,-0.32,1.04,
4.199,5.92,-1.24,1.63,-0.36,-0.28,0.94,
4.199,5.92,-1.24,1.63,-0.28,-0.21,0.82,
4.2,5.92,-1.24,1.63,-0.21,-0.10,0.70,
4.2,6.03,-1.99,0.76,-0.21,-0.10,0.70,
4.201,6.03,-1.99,0.76,-0.16,0.02,0.59,
4.201,5.90,-2.46,-0.10,-0.16,0.02,0.59,
4.202,5.90,-2.46,-0.10,-0.12,0.15,0.48,
4.202,5.90,-2.46,-0.10,-0.09,0.28,0.38,
4.203,5.86,-2.85,-0.23,-0.09,0.28,0.38,
4.203,5.86,-2.85,-0.23,-0.07,0.39,0.27,
4.206,5.86,-2.85,-0.23,-0.06,0.48,0.18,
4.209,5.35,-2.52,0.10,-0.06,0.48,0.18,
4.209,5.35,-2.52,0.10,-0.05,0.55,0.10,
4.21,5.35,-2.52,0.10,-0.03,0.62,0.03,
4.214,4.31,-1.53,0.22,-0.03,0.62,0.03,
4.214,4.31,-1.53,0.22,-0.02,0.70,-0.02,
4.216,4.31,-1.53,0.22,-0.02,0.78,-0.06,
4.219,3.32,-0.70,0.10,-0.02,0.78,-0.06,
4.219,3.32,-0.70,0.10,-0.02,0.86,-0.09,
4.221,3.32,-0.70,0.10,-0.02,0.95,-0.12,
4.224,2.61,-0.31,0.31,-0.02,0.95,-0.12,
4.224,2.61,-0.31,0.31,-0.03,1.01,-0.15,
4.226,2.61,-0.31,0.31,-0.03,1.04,-0.18,
4.229,2.20,-0.20,1.02,-0.03,1.04,-0.18,
4.229,2.20,-0.20,1.02,-0.03,1.03,-0.21,
4.231,2.20,-0.20,1.02,-0.04,0.99,-0.24,
4.235,1.77,-0.21,1.66,-0.04,0.99,-0.24,
4.235,1.77,-0.21,1.66,-0.03,0.93,-0.26,
4.235,1.77,-0.21,1.66,-0.02,0.85,-0.28,
4.24,1.30,-0.15,1.95,-0.02,0.85,-0.28,
4.241,1.30,-0.15,1.95,-0.01,0.76,-0.30,
4.241,1.30,-0.15,1.95,0.01,0.66,-0.31,
4.244,0.88,-0.10,1.99,0.01,0.66,-0.31,
4.244,0.88,-0.10,1.99,0.03,0.55,-0.32,
4.246,0.88,-0.10,1.99,0.05,0.43,-0.32,
4.249,0.60,-0.07,1.88,0.05,0.43,-0.32,
4.249,0.60,-0.07,1.88,0.07,0.31,-0.32,
4.251,0.60,-0.07,1.88,0.10,0.18,-0.33,
4.254,0.41,-0.03,1.49,0.10,0.18,-0.33,
4.254,0.41,-0.03,1.49,0.11,0.07,-0.32,
4.259,0.41,-0.03,1.49,0.14,-0.05,-0.32,
4.26,0.10,0.09,1.28,0.14,-0.05,-0.32,
4.261,0.10,0.09,1.28,0.16,-0.19,-0.30,
4.261,0.10,0.09,1.28,0.17,-0.30,-0.28,
4.265,0.10,0.15,0.35,0.17,-0.30,-0.28,
4.266,0.10,0.15,0.35,0.18,-0.37,-0.27,
4.267,0.10,0.15,0.35,0.18,-0.43,-0.28,
4.27,0.18,0.22,0.08,0.18,-0.43,-0.28,
4.271,0.18,0.22,0.08,0.19,-0.49,-0.29,
4.274,0.18,0.22,0.08,0.20,-0.56,-0.31,
4.275,-0.11,0.34,-0.04,0.20,-0.56,-0.31,
4.275,-0.11,0.34,-0.04,0.21,-0.61,-0.33,
4.276,-0.11,0.34,-0.04,0.21,-0.65,-0.33,
4.278,-0.71,0.42,-0.44,0.21,-0.65,-0.33,
4.279,-0.71,0.42,-0.44,0.21,-0.68,-0.33,
4.282,-0.71,0.42,-0.44,0.20,-0.70,-0.33,
4.283,-1.12,0.47,-0.71,0.20,-0.70,-0.33,
4.284,-1.12,0.47,-0.71,0.19,-0.71,-0.31,
4.287,-1.12,0.47,-0.71,0.18,-0.71,-0.29,
4.29,-1.22,0.46,-1.00,0.18,-0.71,-0.29,
4.291,-1.22,0.46,-1.00,0.16,-0.70,-0.27,
4.291,-1.22,0.46,-1.00,0.14,-0.68,-0.24,
4.295,-0.91,0.41,-1.10,0.14,-0.68,-0.24,
4.297,-0.91,0.41,-1.10,0.11,-0.66,-0.23,
4.298,-0.91,0.41,-1.10,0.09,-0.63,-0.21,
4.3,-0.44,0.41,-1.09,0.09,-0.63,-0.21,
4.301,-0.44,0.41,-1.09,0.07,-0.59,-0.20,
4.302,-0.44,0.41,-1.09,0.05,-0.54,-0.18,
4.305,-0.13,0.51,-0.98,0.05,-0.54,-0.18,
4.306,-0.13,0.51,-0.98,0.03,-0.49,-0.17,
4.31,-0.13,0.51,-0.98,0.02,-0.42,-0.16,
4.311,-0.02,0.65,-0.99,0.02,-0.42,-0.16,
4.312,-0.02,0.65,-0.99,0.01,-0.34,-0.15,
4.312,-0.02,0.65,-0.99,0.01,-0.26,-0.13,
4.317,-0.57,0.77,-1.00,0.01,-0.26,-0.13,
4.318,-0.57,0.77,-1.00,0.00,-0.16,-0.09,
4.318,-0.57,0.77,-1.00,0.00,-0.06,-0.03,
4.319,-1.67,0.59,-0.86,0.00,-0.06,-0.03,
4.32,-1.67,0.59,-0.86,-0.00,0.03,0.03,
4.322,-1.67,0.59,-0.86,-0.01,0.12,0.09,
4.326,-1.36,0.73,-0.63,-0.01,0.12,0.09,
4.327,-1.36,0.73,-0.63,-0.02,0.19,0.14,
4.328,-1.36,0.73,-0.63,-0.04,0.26,0.18,
4.331,-0.70,1.00,-0.41,-0.04,0.26,0.18,
4.332,-0.70,1.00,-0.41,-0.05,0.31,0.23,
4.332,-0.70,1.00,-0.41,-0.07,0.36,0.26,
4.335,-0.08,1.08,-0.26,-0.07,0.36,0.26,
4.336,-0.08,1.08,-0.26,-0.08,0.42,0.30,
4.341,-0.08,1.08,-0.26,-0.09,0.47,0.32,
4.342,0.30,0.94,-0.15,-0.09,0.47,0.32,
4.342,0.30,0.94,-0.15,-0.10,0.52,0.34,
4.343,0.30,0.94,-0.15,-0.11,0.57,0.36,
4.35,0.39,0.51,-0.17,-0.11,0.57,0.36,
4.351,0.39,0.51,-0.17,-0.12,0.61,0.36,
4.352,0.39,0.51,-0.17,-0.12,0.65,0.37,
4.352,0.28,0.07,-0.28,-0.12,0.65,0.37,
4.353,0.28,0.07,-0.28,-0.13,0.70,0.37,
4.353,0.28,0.07,-0.28,-0.12,0.72,0.35,
4.354,0.39,-0.48,0.08,-0.12,0.72,0.35,
4.354,0.39,-0.48,0.08,-0.12,0.74,0.34,
4.362,0.39,-0.48,0.08,-0.10,0.73,0.30,
4.362,0.39,-0.48,0.08,-0.10,0.75,0.27,
4.363,0.39,-0.48,0.08,-0.09,0.77,0.24,
4.363,0.53,-0.81,0.23,-0.09,0.77,0.24,
4.366,0.76,-0.93,0.17,-0.09,0.77,0.24,
4.367,0.76,-0.93,0.17,-0.07,0.78,0.19,
4.367,0.76,-0.93,0.17,-0.06,0.80,0.15,
4.37,1.08,-0.79,0.03,-0.06,0.80,0.15,
4.37,1.08,-0.79,0.03,-0.04,0.83,0.11,
4.371,1.08,-0.79,0.03,-0.03,0.85,0.06,
4.375,1.21,-0.49,-0.07,-0.03,0.85,0.06,
4.377,1.21,-0.49,-0.07,-0.02,0.87,0.03,
4.378,1.21,-0.49,-0.07,-0.01,0.88,0.00,
4.38,0.94,-0.15,-0.11,-0.01,0.88,0.00,
4.38,0.94,-0.15,-0.11,-0.00,0.88,-0.02,
4.383,0.94,-0.15,-0.11,0.01,0.86,-0.05,
4.385,0.68,-0.22,0.06,0.01,0.86,-0.05,
4.385,0.68,-0.22,0.06,0.01,0.85,-0.07,
4.386,0.68,-0.22,0.06,0.02,0.80,-0.10,
4.39,0.60,-0.11,0.20,0.02,0.80,-0.10,
4.391,0.60,-0.11,0.20,0.03,0.77,-0.11,
4.393,0.60,-0.11,0.20,0.03,0.73,-0.12,
4.394,0.60,-0.11,0.20,0.04,0.67,-0.16,
4.394,1.09,0.07,0.28,0.04,0.67,-0.16,
4.397,1.09,0.07,0.28,0.04,0.61,-0.20,
4.401,1.47,-0.10,0.02,0.04,0.61,-0.20,
4.401,1.47,-0.10,0.02,0.05,0.57,-0.24,
4.402,1.47,-0.10,0.02,0.05,0.53,-0.26,
4.405,0.92,0.04,-0.33,0.05,0.53,-0.26,
4.406,0.92,0.04,-0.33,0.05,0.49,-0.26,
4.407,0.92,0.04,-0.33,0.04,0.43,-0.28,
4.41,0.92,0.04,-0.33,0.04,0.37,-0.30,
4.411,0.58,-0.72,-0.29,0.04,0.37,-0.30,
4.412,0.58,-0.72,-0.29,0.02,0.32,-0.31,
4.416,0.31,-0.84,-0.43,0.02,0.32,-0.31,
4.417,0.31,-0.84,-0.43,0.01,0.27,-0.31,
4.417,0.31,-0.84,-0.43,-0.00,0.22,-0.31,
4.421,0.15,-0.73,-0.27,-0.00,0.22,-0.31,
4.421,0.15,-0.73,-0.27,-0.01,0.16,-0.31,
4.425,0.18,-0.58,-0.13,-0.01,0.16,-0.31,
4.426,0.18,-0.58,-0.13,-0.02,0.11,-0.30,
4.427,0.18,-0.58,-0.13,-0.02,0.06,-0.30,
4.427,0.18,-0.58,-0.13,-0.03,0.02,-0.29,
4.43,0.45,-0.51,-0.30,-0.03,0.02,-0.29,
4.43,0.45,-0.51,-0.30,-0.03,-0.00,-0.30,
4.432,0.45,-0.51,-0.30,-0.04,-0.03,-0.30,
4.435,0.57,-0.59,-0.31,-0.04,-0.03,-0.30,
4.435,0.57,-0.59,-0.31,-0.04,-0.05,-0.31,
4.436,0.57,-0.59,-0.31,-0.04,-0.08,-0.32,
4.44,0.42,-0.71,-0.21,-0.04,-0.08,-0.32,
4.441,0.42,-0.71,-0.21,-0.04,-0.11,-0.32,
4.441,0.42,-0.71,-0.21,-0.04,-0.13,-0.32,
4.449,0.08,-0.83,-0.29,-0.04,-0.13,-0.32,
4.45,0.08,-0.83,-0.29,-0.04,-0.14,-0.31,
4.45,0.08,-0.83,-0.29,-0.04,-0.14,-0.29,
4.451,-0.75,-1.16,-0.46,-0.04,-0.14,-0.29,
4.451,-0.75,-1.16,-0.46,-0.05,-0.14,-0.26,
4.452,-0.75,-1.16,-0.46,-0.05,-0.13,-0.25,
4.457,0.65,-1.05,-0.35,-0.05,-0.13,-0.25,
4.461,1.52,-0.69,-0.25,-0.05,-0.13,-0.25,
4.462,1.52,-0.69,-0.25,-0.04,-0.12,-0.27,
4.462,1.52,-0.69,-0.25,-0.04,-0.10,-0.29,
4.463,1.52,-0.69,-0.25,-0.03,-0.08,-0.32,
4.463,1.52,-0.69,-0.25,-0.02,-0.06,-0.35,
4.464,1.48,-0.43,-0.25,-0.02,-0.06,-0.35,
4.464,1.48,-0.43,-0.25,-0.00,-0.03,-0.38,
4.467,1.48,-0.43,-0.25,0.01,-0.00,-0.39,
4.47,0.71,-0.58,-0.26,0.01,-0.00,-0.39,
4.47,0.71,-0.58,-0.26,0.02,0.03,-0.39,
4.476,0.16,-0.63,-0.15,0.02,0.03,-0.39,
4.477,0.16,-0.63,-0.15,0.04,0.05,-0.39,
4.477,0.16,-0.63,-0.15,0.06,0.07,-0.39,
4.478,0.16,-0.63,-0.15,0.07,0.08,-0.39,
4.479,0.00,-0.35,-0.06,0.07,0.08,-0.39,
4.48,0.00,-0.35,-0.06,0.08,0.09,-0.38,
4.482,0.00,-0.35,-0.06,0.09,0.10,-0.38,
4.484,-0.03,0.03,0.01,0.09,0.10,-0.38,
4.484,-0.03,0.03,0.01,0.10,0.11,-0.38,
4.486,-0.03,0.03,0.01,0.10,0.11,-0.36,
4.49,-1.45,0.02,0.06,0.10,0.11,-0.36,
4.491,-1.45,0.02,0.06,0.10,0.10,-0.32,
4.492,-1.45,0.02,0.06,0.10,0.09,-0.29,
4.495,-1.04,0.35,0.20,0.10,0.09,-0.29,
4.495,-1.04,0.35,0.20,0.10,0.09,-0.28,
4.498,-1.04,0.35,0.20,0.10,0.07,-0.27,
4.5,-0.30,0.86,0.37,0.10,0.07,-0.27,
4.5,-0.30,0.86,0.37,0.09,0.04,-0.27,
4.502,-0.30,0.86,0.37,0.08,0.01,-0.27,
4.51,-0.20,0.96,0.50,0.08,0.01,-0.27,
4.511,-0.20,0.96,0.50,0.07,-0.04,-0.27,
4.512,-0.20,0.96,0.50,0.05,-0.09,-0.26,
4.512,-0.73,0.81,0.51,0.05,-0.09,-0.26,
4.513,-0.73,0.81,0.51,0.04,-0.15,-0.25,
4.514,-0.73,0.81,0.51,0.03,-0.21,-0.23,
4.514,-0.92,0.58,0.58,0.03,-0.21,-0.23,
4.515,-0.92,0.58,0.58,0.02,-0.26,-0.21,
4.519,-0.92,0.58,0.58,0.01,-0.31,-0.20,
4.521,-1.03,0.42,0.46,0.01,-0.31,-0.20,
4.521,-1.03,0.42,0.46,0.00,-0.35,-0.18,
4.522,-1.03,0.42,0.46,-0.01,-0.39,-0.17,
4.525,-0.88,0.30,0.36,-0.01,-0.39,-0.17,
4.526,-0.88,0.30,0.36,-0.02,-0.41,-0.16,
4.527,-0.88,0.30,0.36,-0.02,-0.43,-0.15,
4.529,-0.54,0.23,0.39,-0.02,-0.43,-0.15,
4.53,-0.54,0.23,0.39,-0.03,-0.45,-0.15,
4.533,-0.54,0.23,0.39,-0.04,-0.47,-0.13,
4.534,-0.39,0.17,0.40,-0.04,-0.47,-0.13,
4.535,-0.39,0.17,0.40,-0.04,-0.48,-0.14,
4.538,-0.39,0.17,0.40,-0.05,-0.49,-0.12,
4.542,-0.36,0.08,0.43,-0.05,-0.49,-0.12,
4.542,-0.36,0.08,0.43,-0.05,-0.49,-0.12,
4.543,-0.36,0.08,0.43,-0.06,-0.50,-0.12,
4.545,-0.43,-0.07,0.58,-0.06,-0.50,-0.12,
4.545,-0.43,-0.07,0.58,-0.06,-0.50,-0.12,
4.548,-0.43,-0.07,0.58,-0.06,-0.51,-0.13,
4.55,-0.56,-0.12,0.54,-0.06,-0.51,-0.13,
4.55,-0.56,-0.12,0.54,-0.06,-0.50,-0.12,
4.555,-0.56,-0.12,0.54,-0.05,-0.50,-0.13,
4.556,-0.66,-0.28,0.60,-0.05,-0.50,-0.13,
4.558,-0.66,-0.28,0.60,-0.05,-0.49,-0.14,
4.559,-0.66,-0.28,0.60,-0.04,-0.48,-0.13,
4.559,-0.66,-0.28,0.60,-0.04,-0.46,-0.13,
4.561,-0.82,-0.34,0.50,-0.04,-0.46,-0.13,
4.562,-0.82,-0.34,0.50,-0.05,-0.45,-0.13,
4.565,-0.76,-0.12,0.35,-0.05,-0.45,-0.13,
4.566,-0.76,-0.12,0.35,-0.05,-0.44,-0.12,
4.566,-0.76,-0.12,0.35,-0.06,-0.42,-0.10,
4.57,-1.18,-0.31,0.46,-0.06,-0.42,-0.10,
4.57,-1.18,-0.31,0.46,-0.06,-0.41,-0.10,
4.573,-1.18,-0.31,0.46,-0.06,-0.43,-0.10,
4.575,-1.86,-2.20,1.15,-0.06,-0.43,-0.10,
4.576,-1.86,-2.20,1.15,-0.03,-0.47,-0.13,
4.577,-1.86,-2.20,1.15,0.00,-0.50,-0.12,
4.58,-4.44,-1.53,0.48,0.00,-0.50,-0.12,
4.581,-4.44,-1.53,0.48,0.01,-0.47,-0.01,
4.582,-4.44,-1.53,0.48,0.00,-0.39,0.04,
4.585,-2.08,0.48,-0.58,0.00,-0.39,0.04,
4.585,-2.08,0.48,-0.58,-0.01,-0.31,0.06,
4.588,-2.08,0.48,-0.58,-0.02,-0.25,0.06,
4.591,0.41,2.56,-0.08,-0.02,-0.25,0.06,
4.592,0.41,2.56,-0.08,-0.03,-0.22,0.06,
4.595,0.41,2.56,-0.08,-0.05,-0.21,0.07,
4.595,0.27,2.27,0.05,-0.05,-0.21,0.07,
4.596,0.27,2.27,0.05,-0.07,-0.23,0.07,
4.598,0.27,2.27,0.05,-0.08,-0.30,0.05,
4.601,0.14,1.22,0.06,-0.08,-0.30,0.05,
4.602,0.14,1.22,0.06,-0.11,-0.38,0.03,
4.603,0.14,1.22,0.06,-0.13,-0.44,0.04,
4.606,-1.14,0.76,-0.57,-0.13,-0.44,0.04,
4.609,-1.14,0.76,-0.57,-0.16,-0.49,0.05,
4.609,-1.14,0.76,-0.57,-0.18,-0.51,0.06,
4.61,-1.39,0.32,-0.90,-0.18,-0.51,0.06,
4.61,-1.39,0.32,-0.90,-0.19,-0.52,0.07,
4.613,-1.39,0.32,-0.90,-0.20,-0.51,0.07,
4.616,-1.90,-1.04,-0.61,-0.20,-0.51,0.07,
4.617,-1.90,-1.04,-0.61,-0.20,-0.51,0.07,
4.618,-1.90,-1.04,-0.61,-0.18,-0.54,0.08,
4.621,-3.03,-1.65,0.26,-0.18,-0.54,0.08,
4.622,-3.03,-1.65,0.26,-0.14,-0.59,0.09,
4.626,-2.29,0.95,-0.99,-0.14,-0.59,0.09,
4.627,-2.29,0.95,-0.99,-0.13,-0.57,0.12,
4.628,-2.29,0.95,-0.99,-0.14,-0.49,0.17,
4.628,-2.29,0.95,-0.99,-0.15,-0.42,0.22,
4.632,-0.35,2.78,-0.78,-0.15,-0.42,0.22,
4.633,-0.35,2.78,-0.78,-0.16,-0.37,0.25,
4.633,-0.35,2.78,-0.78,-0.15,-0.35,0.26,
4.636,1.07,2.25,0.09,-0.15,-0.35,0.26,
4.637,1.07,2.25,0.09,-0.14,-0.37,0.24,
4.637,1.07,2.25,0.09,-0.13,-0.42,0.22,
4.641,1.02,1.20,0.12,-0.13,-0.42,0.22,
4.642,1.02,1.20,0.12,-0.12,-0.47,0.19,
4.642,1.02,1.20,0.12,-0.13,-0.50,0.18,
4.646,0.46,0.80,-0.70,-0.13,-0.50,0.18,
4.647,0.46,0.80,-0.70,-0.13,-0.50,0.18,
4.647,0.46,0.80,-0.70,-0.13,-0.47,0.17,
4.65,0.71,0.56,-0.89,-0.13,-0.47,0.17,
4.651,0.71,0.56,-0.89,-0.12,-0.43,0.16,
4.652,0.71,0.56,-0.89,-0.10,-0.37,0.14,
4.655,1.15,0.18,-0.63,-0.10,-0.37,0.14,
4.655,1.15,0.18,-0.63,-0.08,-0.30,0.11,
4.661,1.15,0.18,-0.63,-0.05,-0.23,0.08,
4.662,1.59,-0.17,-0.18,-0.05,-0.23,0.08,
4.662,1.59,-0.17,-0.18,-0.02,-0.16,0.04,
4.663,1.59,-0.17,-0.18,0.02,-0.09,0.02,
4.669,0.91,-0.47,0.13,0.02,-0.09,0.02,
4.669,0.91,-0.47,0.13,0.05,-0.03,0.02,
4.67,0.91,-0.47,0.13,0.08,0.02,0.01,
4.671,0.60,-0.58,0.45,0.08,0.02,0.01,
4.676,0.60,-0.58,0.45,0.11,0.07,0.01,
4.676,0.60,-0.58,0.45,0.14,0.12,0.00,
4.677,0.55,-0.49,0.76,0.14,0.12,0.00,
4.677,0.55,-0.49,0.76,0.17,0.15,-0.01,
4.678,0.55,-0.49,0.76,0.20,0.18,-0.01,
4.681,0.39,-0.31,0.99,0.20,0.18,-0.01,
4.682,0.39,-0.31,0.99,0.23,0.19,-0.02,
4.682,0.39,-0.31,0.99,0.25,0.20,-0.02,
4.685,0.22,-0.09,1.08,0.25,0.20,-0.02,
4.686,0.22,-0.09,1.08,0.27,0.19,-0.01,
4.688,0.22,-0.09,1.08,0.29,0.17,-0.01,
4.69,-0.11,0.14,0.93,0.29,0.17,-0.01,
4.691,-0.11,0.14,0.93,0.30,0.15,-0.00,
4.694,-0.11,0.14,0.93,0.30,0.12,0.05,
4.695,-3.99,-0.59,0.59,0.30,0.12,0.05,
4.695,-3.99,-0.59,0.59,0.29,0.09,0.19,
4.698,-3.99,-0.59,0.59,0.30,0.04,0.25,
4.701,-1.60,-0.69,1.31,0.30,0.04,0.25,
4.701,-1.60,-0.69,1.31,0.31,-0.02,0.23,
4.702,-1.60,-0.69,1.31,0.35,-0.11,0.18,
4.705,-1.06,-0.97,1.37,0.35,-0.11,0.18,
4.706,-1.06,-0.97,1.37,0.36,-0.17,0.16,
4.707,-1.06,-0.97,1.37,0.38,-0.22,0.16,
4.711,-1.06,-0.97,1.37,0.38,-0.23,0.17,
4.712,-0.65,0.44,0.27,0.38,-0.23,0.17,
4.713,-0.65,0.44,0.27,0.36,-0.21,0.19,
4.716,0.18,1.57,-0.65,0.36,-0.21,0.19,
4.717,0.18,1.57,-0.65,0.34,-0.18,0.21,
4.718,0.18,1.57,-0.65,0.32,-0.16,0.22,
4.721,1.18,2.13,-0.22,0.32,-0.16,0.22,
4.722,1.18,2.13,-0.22,0.31,-0.17,0.22,
4.727,1.18,2.13,-0.22,0.30,-0.19,0.19,
4.728,2.02,1.82,0.06,0.30,-0.19,0.19,
4.729,2.02,1.82,0.06,0.30,-0.23,0.15,
4.729,2.02,1.82,0.06,0.29,-0.26,0.11,
4.73,2.00,1.02,-0.09,0.29,-0.26,0.11,
4.73,2.00,1.02,-0.09,0.28,-0.31,0.07,
4.733,2.00,1.02,-0.09,0.28,-0.35,0.02,
4.736,1.55,0.45,-0.44,0.28,-0.35,0.02,
4.737,1.55,0.45,-0.44,0.27,-0.39,-0.01,
4.737,1.55,0.45,-0.44,0.26,-0.41,-0.01,
4.741,0.33,-0.25,-0.79,0.26,-0.41,-0.01,
4.742,0.33,-0.25,-0.79,0.25,-0.42,-0.00,
4.742,0.33,-0.25,-0.79,0.24,-0.42,-0.00,
4.745,0.09,-0.60,-0.70,0.24,-0.42,-0.00,
4.746,0.09,-0.60,-0.70,0.24,-0.41,0.00,
4.749,0.09,-0.60,-0.70,0.24,-0.40,0.01,
4.75,0.41,-0.68,-0.54,0.24,-0.40,0.01,
4.751,0.41,-0.68,-0.54,0.24,-0.39,0.00,
4.754,0.41,-0.68,-0.54,0.24,-0.37,0.00,
4.761,0.85,-0.44,-0.45,0.24,-0.37,0.00,
4.762,0.85,-0.44,-0.45,0.25,-0.36,-0.02,
4.762,0.85,-0.44,-0.45,0.25,-0.34,-0.02,
4.763,0.50,-0.35,-0.55,0.25,-0.34,-0.02,
4.763,0.50,-0.35,-0.55,0.25,-0.32,-0.02,
4.764,0.50,-0.35,-0.55,0.25,-0.31,-0.01,
4.77,0.37,-0.38,-0.48,0.25,-0.31,-0.01,
4.771,0.37,-0.38,-0.48,0.25,-0.29,-0.00,
4.772,0.37,-0.38,-0.48,0.25,-0.28,0.00,
4.772,0.36,-0.35,-0.54,0.25,-0.28,0.00,
4.773,0.36,-0.35,-0.54,0.25,-0.27,0.01,
4.773,0.36,-0.35,-0.54,0.25,-0.26,0.01,
4.776,0.21,-0.40,-0.58,0.25,-0.26,0.01,
4.78,0.21,-0.40,-0.58,0.25,-0.25,0.02,
4.78,0.21,-0.40,-0.58,0.25,-0.23,0.03,
4.78,0.21,-0.40,-0.58,0.25,-0.22,0.04,
4.781,0.27,-0.45,-0.56,0.25,-0.22,0.04,
4.783,0.27,-0.45,-0.56,0.24,-0.21,0.04,
4.786,0.27,-0.45,-0.56,0.25,-0.21,0.03,
4.786,0.51,-0.33,-0.48,0.25,-0.21,0.03,
4.787,0.51,-0.33,-0.48,0.25,-0.19,0.04,
4.791,0.09,-0.48,-0.78,0.25,-0.19,0.04,
4.792,0.09,-0.48,-0.78,0.24,-0.17,0.05,
4.792,0.09,-0.48,-0.78,0.24,-0.17,0.07,
4.798,-0.17,-0.75,-0.71,0.24,-0.17,0.07,
4.799,-0.17,-0.75,-0.71,0.23,-0.16,0.09,
4.799,-0.17,-0.75,-0.71,0.22,-0.17,0.10,
4.801,-0.11,-0.81,-0.67,0.22,-0.17,0.10,
4.801,-0.11,-0.81,-0.67,0.21,-0.17,0.12,
4.803,-0.11,-0.81,-0.67,0.20,-0.18,0.13,
4.807,-0.04,-0.67,-0.57,0.20,-0.18,0.13,
4.808,-0.04,-0.67,-0.57,0.19,-0.20,0.13,
4.809,-0.04,-0.67,-0.57,0.18,-0.22,0.14,
4.81,-0.14,-0.56,-0.51,0.18,-0.22,0.14,
4.81,-0.14,-0.56,-0.51,0.17,-0.24,0.15,
4.813,-0.14,-0.56,-0.51,0.16,-0.26,0.17,
4.816,-0.27,-0.48,-0.45,0.16,-0.26,0.17,
4.816,-0.27,-0.48,-0.45,0.16,-0.28,0.17,
4.818,-0.27,-0.48,-0.45,0.15,-0.30,0.18,
4.82,-0.27,-0.48,-0.45,0.15,-0.33,0.19,
4.821,-0.22,-0.28,-0.34,0.15,-0.33,0.19,
4.825,-0.22,-0.28,-0.34,0.16,-0.36,0.18,
4.826,-0.10,0.06,-0.41,0.16,-0.36,0.18,
4.826,-0.10,0.06,-0.41,0.16,-0.36,0.18,
4.829,-0.10,0.06,-0.41,0.16,-0.38,0.20,
4.83,-0.53,-0.03,-0.42,0.16,-0.38,0.20,
4.83,-0.53,-0.03,-0.42,0.17,-0.40,0.22,
4.834,-0.53,-0.03,-0.42,0.17,-0.42,0.23,
4.837,-0.54,-0.12,-0.29,0.17,-0.42,0.23,
4.837,-0.54,-0.12,-0.29,0.17,-0.44,0.24,
4.842,-0.54,-0.12,-0.29,0.17,-0.46,0.25,
4.843,-0.47,-0.07,-0.17,0.17,-0.46,0.25,
4.844,-0.47,-0.07,-0.17,0.17,-0.49,0.26,
4.844,-0.47,-0.07,-0.17,0.18,-0.51,0.27,
4.854,-0.42,0.05,-0.08,0.18,-0.51,0.27,
4.855,-0.42,0.05,-0.08,0.18,-0.53,0.28,
4.855,-0.42,0.05,-0.08,0.18,-0.55,0.28,
4.856,-0.35,0.25,-0.01,0.18,-0.55,0.28,
4.856,-0.35,0.25,-0.01,0.18,-0.57,0.29,
4.857,-0.35,0.25,-0.01,0.18,-0.59,0.30,
4.857,-0.28,0.42,0.05,0.18,-0.59,0.30,
4.862,-0.28,0.42,0.05,0.18,-0.61,0.30,
4.862,-0.28,0.42,0.05,0.18,-0.63,0.31,
4.862,-0.21,0.58,0.11,0.18,-0.63,0.31,
4.863,-0.21,0.58,0.11,0.18,-0.65,0.32,
4.863,-0.21,0.58,0.11,0.18,-0.67,0.32,
4.866,-0.15,0.64,0.21,0.18,-0.67,0.32,
4.867,-0.15,0.64,0.21,0.18,-0.69,0.33,
4.867,-0.15,0.64,0.21,0.18,-0.71,0.34,
4.87,-0.05,0.58,0.72,0.18,-0.71,0.34,
4.871,-0.05,0.58,0.72,0.20,-0.75,0.33,
4.874,-0.05,0.58,0.72,0.21,-0.77,0.32,
4.877,0.16,0.12,0.37,0.21,-0.77,0.32,
4.878,0.16,0.12,0.37,0.21,-0.78,0.31,
4.878,0.16,0.12,0.37,0.21,-0.79,0.31,
4.881,-0.17,0.46,0.34,0.21,-0.79,0.31,
4.881,-0.17,0.46,0.34,0.21,-0.79,0.33,
4.883,-0.17,0.46,0.34,0.20,-0.78,0.34,
4.885,0.04,0.36,0.05,0.20,-0.78,0.34,
4.886,0.04,0.36,0.05,0.18,-0.75,0.36,
4.887,0.04,0.36,0.05,0.17,-0.73,0.37,
4.89,0.32,0.32,0.18,0.17,-0.73,0.37,
4.894,0.32,0.32,0.18,0.16,-0.71,0.38,
4.895,0.32,0.32,0.18,0.15,-0.68,0.39,
4.895,0.32,0.32,0.18,0.16,-0.65,0.41,
4.896,0.19,0.12,0.49,0.16,-0.65,0.41,
4.897,0.19,0.12,0.49,0.15,-0.62,0.41,
4.901,0.47,-0.25,0.39,0.15,-0.62,0.41,
4.901,0.47,-0.25,0.39,0.15,-0.60,0.40,
4.902,0.47,-0.25,0.39,0.14,-0.59,0.39,
4.907,0.87,-0.42,0.48,0.14,-0.59,0.39,
4.907,0.87,-0.42,0.48,0.14,-0.57,0.37,
4.908,0.87,-0.42,0.48,0.14,-0.54,0.35,
4.912,1.16,-0.56,0.26,0.14,-0.54,0.35,
4.913,1.16,-0.56,0.26,0.14,-0.52,0.33,
4.913,1.16,-0.56,0.26,0.13,-0.48,0.31,
4.917,1.20,-0.62,0.01,0.13,-0.48,0.31,
4.917,1.20,-0.62,0.01,0.13,-0.44,0.28,
4.918,1.20,-0.62,0.01,0.13,-0.40,0.26,
4.921,1.14,-0.63,-0.18,0.13,-0.40,0.26,
4.921,1.14,-0.63,-0.18,0.13,-0.35,0.24,
4.925,1.14,-0.63,-0.18,0.13,-0.30,0.22,
4.927,1.09,-0.71,-0.30,0.13,-0.30,0.22,
4.927,1.09,-0.71,-0.30,0.13,-0.25,0.20,
4.928,1.09,-0.71,-0.30,0.13,-0.21,0.18,
4.931,1.15,-0.96,-0.50,0.13,-0.21,0.18,
4.932,1.15,-0.96,-0.50,0.12,-0.15,0.15,
4.933,1.15,-0.96,-0.50,0.11,-0.11,0.12,
4.936,1.26,-1.29,-0.73,0.11,-0.11,0.12,
4.936,1.26,-1.29,-0.73,0.09,-0.07,0.09,
4.938,1.26,-1.29,-0.73,0.09,-0.04,0.07,
4.944,1.13,-0.84,-0.51,0.09,-0.04,0.07,
4.945,1.13,-0.84,-0.51,0.08,-0.02,0.04,
4.946,1.13,-0.84,-0.51,0.07,-0.00,0.02,
4.946,0.89,-0.34,-0.52,0.07,-0.00,0.02,
4.947,0.89,-0.34,-0.52,0.07,0.01,0.01,
4.951,0.89,-0.34,-0.52,0.06,0.03,-0.01,
4.952,0.61,-0.08,-0.56,0.06,0.03,-0.01,
4.952,0.61,-0.08,-0.56,0.06,0.04,-0.02,
4.953,0.61,-0.08,-0.56,0.06,0.05,-0.03,
4.958,0.35,0.04,-0.46,0.06,0.05,-0.03,
4.959,0.35,0.04,-0.46,0.05,0.05,-0.03,
4.959,0.35,0.04,-0.46,0.04,0.04,-0.04,
4.96,0.12,0.16,-0.40,0.04,0.04,-0.04,
4.961,0.12,0.16,-0.40,0.04,0.03,-0.04,
4.963,0.12,0.16,-0.40,0.03,0.02,-0.03,
4.965,-0.05,0.23,-0.45,0.03,0.02,-0.03,
4.966,-0.05,0.23,-0.45,0.02,0.00,-0.03,
4.967,-0.05,0.23,-0.45,0.01,-0.01,-0.03,
4.971,-0.19,0.29,-0.46,0.01,-0.01,-0.03,
4.972,-0.19,0.29,-0.46,-0.00,-0.03,-0.02,
4.975,-0.19,0.29,-0.46,-0.02,-0.06,-0.02,
4.976,-0.26,0.28,-0.47,-0.02,-0.06,-0.02,
4.978,-0.26,0.28,-0.47,-0.03,-0.08,-0.01,
4.98,-0.26,0.28,-0.47,-0.05,-0.10,0.00,
4.981,-0.39,0.25,-0.50,-0.05,-0.10,0.00,
4.981,-0.39,0.25,-0.50,-0.06,-0.12,0.01,
4.984,-0.39,0.25,-0.50,-0.08,-0.14,0.02,
4.986,-0.37,0.23,-0.51,-0.08,-0.14,0.02,
4.987,-0.37,0.23,-0.51,-0.10,-0.17,0.04,
4.987,-0.37,0.23,-0.51,-0.11,-0.19,0.05,
4.99,-0.31,0.20,-0.53,-0.11,-0.19,0.05,
4.991,-0.31,0.20,-0.53,-0.13,-0.21,0.06,
4.994,-0.31,0.20,-0.53,-0.15,-0.23,0.07,
4.997,-0.28,0.19,-0.51,-0.15,-0.23,0.07,
4.997,-0.28,0.19,-0.51,-0.17,-0.25,0.09,
4.998,-0.28,0.19,-0.51,-0.18,-0.27,0.11,
5.001,-0.24,0.11,-0.50,-0.18,-0.27,0.11,
5.002,-0.24,0.11,-0.50,-0.20,-0.29,0.11,
5.003,-0.24,0.11,-0.50,-0.22,-0.31,0.12,
5.007,-0.08,-0.10,-0.57,-0.22,-0.31,0.12,
5.008,-0.08,-0.10,-0.57,-0.24,-0.32,0.13,
