time,ax,ay,az,wx,wy,wz,
0.002,-0.56,0.41,-0.81,-0.13,-0.51,0.07,
0.003,-0.56,0.41,-0.81,-0.19,-0.57,0.09,
0.004,-0.56,0.41,-0.81,-0.24,-0.62,0.11,
0.004,-0.57,0.40,-0.61,-0.24,-0.62,0.11,
0.005,-0.57,0.40,-0.61,-0.29,-0.66,0.12,
0.005,-0.57,0.40,-0.61,-0.33,-0.69,0.13,
0.006,-0.57,0.40,-0.39,-0.33,-0.69,0.13,
0.006,-0.57,0.40,-0.39,-0.36,-0.71,0.14,
0.007,-0.57,0.40,-0.39,-0.39,-0.72,0.14,
0.015,-0.51,0.34,-0.20,-0.39,-0.72,0.14,
0.015,-0.51,0.34,-0.20,-0.41,-0.72,0.15,
0.016,-0.51,0.34,-0.20,-0.42,-0.72,0.15,
0.016,-0.42,0.29,-0.08,-0.42,-0.72,0.15,
0.016,-0.42,0.29,-0.08,-0.43,-0.72,0.15,
0.017,-0.42,0.29,-0.08,-0.43,-0.71,0.15,
0.017,-0.29,0.22,-0.01,-0.43,-0.71,0.15,
0.018,-0.29,0.22,-0.01,-0.43,-0.69,0.15,
0.026,-0.29,0.22,-0.01,-0.43,-0.67,0.15,
0.027,-0.21,0.14,0.02,-0.43,-0.67,0.15,
0.027,-0.21,0.14,0.02,-0.43,-0.66,0.15,
0.027,-0.21,0.14,0.02,-0.42,-0.64,0.15,
0.027,-0.15,0.05,0.10,-0.42,-0.64,0.15,
0.028,-0.15,0.05,0.10,-0.41,-0.62,0.15,
0.031,-0.15,0.05,0.10,-0.41,-0.60,0.15,
0.033,-0.09,-0.05,0.16,-0.41,-0.60,0.15,
0.033,-0.09,-0.05,0.16,-0.40,-0.59,0.15,
0.035,-0.09,-0.05,0.16,-0.39,-0.58,0.15,
0.039,-0.00,-0.16,0.23,-0.39,-0.58,0.15,
0.04,-0.00,-0.16,0.23,-0.38,-0.57,0.14,
0.04,-0.00,-0.16,0.23,-0.38,-0.56,0.14,
0.043,0.14,-0.25,0.20,-0.38,-0.56,0.14,
0.043,0.14,-0.25,0.20,-0.37,-0.55,0.14,
0.044,0.14,-0.25,0.20,-0.36,-0.55,0.14,
0.05,0.27,-0.31,0.09,-0.36,-0.55,0.14,
0.05,0.27,-0.31,0.09,-0.35,-0.54,0.13,
0.051,0.27,-0.31,0.09,-0.35,-0.53,0.13,
0.051,0.32,-0.33,-0.08,-0.35,-0.53,0.13,
0.052,0.32,-0.33,-0.08,-0.35,-0.51,0.12,
0.055,0.32,-0.33,-0.08,-0.35,-0.49,0.12,
0.057,0.33,-0.34,-0.28,-0.35,-0.49,0.12,
0.058,0.33,-0.34,-0.28,-0.35,-0.47,0.12,
0.061,0.33,-0.34,-0.28,-0.35,-0.46,0.12,
0.062,0.29,-0.29,-0.43,-0.35,-0.46,0.12,
0.062,0.29,-0.29,-0.43,-0.35,-0.44,0.12,
0.066,0.29,-0.29,-0.43,-0.36,-0.42,0.13,
0.067,0.19,-0.19,-0.50,-0.36,-0.42,0.13,
0.067,0.19,-0.19,-0.50,-0.36,-0.41,0.14,
0.07,0.19,-0.19,-0.50,-0.37,-0.40,0.14,
0.074,0.05,-0.09,-0.48,-0.37,-0.40,0.14,
0.075,0.05,-0.09,-0.48,-0.38,-0.39,0.15,
0.076,0.05,-0.09,-0.48,-0.39,-0.38,0.16,
0.078,0.05,-0.09,-0.48,-0.39,-0.38,0.17,
0.079,-0.02,0.02,-0.36,-0.39,-0.38,0.17,
0.079,-0.02,0.02,-0.36,-0.40,-0.39,0.19,
0.084,-0.07,0.08,-0.23,-0.40,-0.39,0.19,
0.085,-0.07,0.08,-0.23,-0.41,-0.40,0.20,
0.085,-0.07,0.08,-0.23,-0.41,-0.40,0.21,
0.087,-0.10,0.12,-0.13,-0.41,-0.40,0.21,
0.088,-0.10,0.12,-0.13,-0.42,-0.42,0.22,
0.089,-0.10,0.12,-0.13,-0.42,-0.43,0.23,
0.094,-0.08,0.15,-0.03,-0.42,-0.43,0.23,
0.095,-0.08,0.15,-0.03,-0.42,-0.44,0.24,
0.095,-0.08,0.15,-0.03,-0.43,-0.46,0.25,
0.111,-0.08,0.15,-0.03,-0.43,-0.47,0.25,
0.111,-0.08,0.16,0.01,-0.43,-0.47,0.25,
0.112,-0.08,0.16,0.01,-0.43,-0.48,0.26,
0.112,-0.17,0.19,0.00,-0.43,-0.48,0.26,
0.113,-0.17,0.19,0.00,-0.43,-0.49,0.27,
0.113,-0.17,0.19,0.00,-0.42,-0.50,0.27,
0.114,-0.34,0.22,0.05,-0.42,-0.50,0.27,
0.114,-0.34,0.22,0.05,-0.42,-0.51,0.28,
0.115,-0.34,0.22,0.05,-0.41,-0.52,0.29,
0.115,-0.46,0.28,0.17,-0.41,-0.52,0.29,
0.116,-0.46,0.28,0.17,-0.41,-0.54,0.30,
0.116,-0.46,0.28,0.17,-0.40,-0.55,0.31,
0.117,-0.48,0.34,0.40,-0.40,-0.55,0.31,
0.117,-0.48,0.34,0.40,-0.39,-0.57,0.31,
0.125,-0.48,0.34,0.40,-0.38,-0.59,0.32,
0.126,-0.47,0.41,0.61,-0.38,-0.59,0.32,
0.126,-0.47,0.41,0.61,-0.36,-0.61,0.33,
0.127,-0.47,0.41,0.61,-0.34,-0.63,0.34,
0.127,-0.46,0.49,0.79,-0.34,-0.63,0.34,
0.128,-0.46,0.49,0.79,-0.32,-0.65,0.34,
0.131,-0.46,0.49,0.79,-0.30,-0.67,0.34,
0.134,-0.39,0.53,0.91,-0.30,-0.67,0.34,
0.135,-0.39,0.53,0.91,-0.28,-0.69,0.35,
0.135,-0.39,0.53,0.91,-0.26,-0.70,0.35,
0.138,-0.29,0.55,0.93,-0.26,-0.70,0.35,
0.139,-0.29,0.55,0.93,-0.23,-0.71,0.35,
0.141,-0.29,0.55,0.93,-0.21,-0.71,0.34,
0.143,-0.20,0.52,0.93,-0.21,-0.71,0.34,
0.143,-0.20,0.52,0.93,-0.18,-0.71,0.34,
0.144,-0.20,0.52,0.93,-0.16,-0.71,0.33,
0.149,-0.13,0.44,0.86,-0.16,-0.71,0.33,
0.15,-0.13,0.44,0.86,-0.14,-0.70,0.33,
0.15,-0.13,0.44,0.86,-0.11,-0.70,0.32,
0.154,-0.05,0.36,0.75,-0.11,-0.70,0.32,
0.155,-0.05,0.36,0.75,-0.09,-0.69,0.31,
0.155,-0.05,0.36,0.75,-0.07,-0.67,0.31,
0.159,-0.12,0.45,0.62,-0.07,-0.67,0.31,
0.177,-0.12,0.45,0.62,-0.05,-0.66,0.32,
0.178,-0.12,0.45,0.62,-0.02,-0.64,0.33,
0.179,-0.29,0.70,0.32,-0.02,-0.64,0.33,
0.179,-0.29,0.70,0.32,-0.00,-0.61,0.34,
0.18,-0.29,0.70,0.32,0.01,-0.58,0.36,
0.18,-0.63,1.20,-0.13,0.01,-0.58,0.36,
0.18,-0.63,1.20,-0.13,0.03,-0.54,0.40,
0.181,-0.63,1.20,-0.13,0.05,-0.50,0.45,
0.181,-0.69,1.15,-0.56,0.05,-0.50,0.45,
0.181,-0.69,1.15,-0.56,0.06,-0.47,0.49,
0.181,-0.69,1.15,-0.56,0.05,-0.43,0.53,
0.182,-0.69,1.15,-0.56,0.05,-0.40,0.55,
0.182,-0.23,0.32,-1.00,0.05,-0.40,0.55,
0.182,-0.23,0.32,-1.00,0.04,-0.37,0.57,
0.183,0.22,-0.49,-1.23,0.04,-0.37,0.57,
0.184,0.22,-0.49,-1.23,0.02,-0.34,0.58,
0.184,0.22,-0.49,-1.23,0.00,-0.31,0.58,
0.189,0.86,-1.26,-1.63,0.00,-0.31,0.58,
0.19,0.86,-1.26,-1.63,-0.03,-0.28,0.57,
0.19,0.86,-1.26,-1.63,-0.06,-0.25,0.55,
0.193,1.36,-1.82,-1.63,-0.06,-0.25,0.55,
0.194,1.36,-1.82,-1.63,-0.09,-0.23,0.52,
0.194,1.36,-1.82,-1.63,-0.12,-0.20,0.48,
0.197,1.67,-2.19,-1.35,-0.12,-0.20,0.48,
0.198,1.67,-2.19,-1.35,-0.15,-0.18,0.44,
0.201,1.67,-2.19,-1.35,-0.18,-0.15,0.39,
0.204,1.76,-2.33,-0.96,-0.18,-0.15,0.39,
0.205,1.76,-2.33,-0.96,-0.21,-0.13,0.34,
0.206,1.76,-2.33,-0.96,-0.24,-0.12,0.28,
0.208,1.64,-2.24,-0.58,-0.24,-0.12,0.28,
0.209,1.64,-2.24,-0.58,-0.26,-0.10,0.23,
0.209,1.64,-2.24,-0.58,-0.29,-0.10,0.18,
0.213,1.37,-1.95,-0.19,-0.29,-0.10,0.18,
0.213,1.37,-1.95,-0.19,-0.30,-0.09,0.14,
0.226,1.37,-1.95,-0.19,-0.32,-0.09,0.09,
0.226,1.05,-1.52,0.22,-0.32,-0.09,0.09,
0.227,1.05,-1.52,0.22,-0.33,-0.10,0.06,
0.228,1.05,-1.52,0.22,-0.34,-0.11,0.03,
0.228,0.67,-0.98,0.61,-0.34,-0.11,0.03,
0.229,0.67,-0.98,0.61,-0.34,-0.12,0.01,
0.229,0.67,-0.98,0.61,-0.34,-0.14,-0.01,
0.23,0.33,-0.43,0.92,-0.34,-0.14,-0.01,
0.23,0.33,-0.43,0.92,-0.34,-0.16,-0.02,
0.231,0.33,-0.43,0.92,-0.33,-0.18,-0.03,
0.243,0.02,0.08,1.15,-0.33,-0.18,-0.03,
0.244,0.02,0.08,1.15,-0.32,-0.20,-0.03,
0.245,0.02,0.08,1.15,-0.31,-0.22,-0.03,
0.245,-0.24,0.54,1.25,-0.31,-0.22,-0.03,
0.246,-0.24,0.54,1.25,-0.29,-0.25,-0.02,
0.246,-0.24,0.54,1.25,-0.28,-0.27,-0.01,
0.247,-0.47,0.96,1.30,-0.28,-0.27,-0.01,
0.247,-0.47,0.96,1.30,-0.26,-0.29,0.00,
0.248,-0.47,0.96,1.30,-0.24,-0.30,0.02,
0.248,-0.68,1.26,1.28,-0.24,-0.30,0.02,
0.249,-0.68,1.26,1.28,-0.22,-0.31,0.04,
0.249,-0.68,1.26,1.28,-0.20,-0.32,0.05,
0.256,-0.74,1.43,1.11,-0.20,-0.32,0.05,
0.257,-0.74,1.43,1.11,-0.18,-0.32,0.07,
0.258,-0.74,1.43,1.11,-0.16,-0.32,0.09,
0.259,-0.64,1.51,0.92,-0.16,-0.32,0.09,
0.259,-0.64,1.51,0.92,-0.14,-0.31,0.10,
0.26,-0.64,1.51,0.92,-0.12,-0.31,0.11,
0.262,-0.54,1.52,0.83,-0.12,-0.31,0.11,
0.263,-0.54,1.52,0.83,-0.10,-0.30,0.13,
0.265,-0.54,1.52,0.83,-0.09,-0.28,0.14,
0.268,-0.52,1.41,0.57,-0.09,-0.28,0.14,
0.268,-0.52,1.41,0.57,-0.07,-0.26,0.16,
0.27,-0.52,1.41,0.57,-0.06,-0.23,0.18,
0.272,-0.67,1.42,0.46,-0.06,-0.23,0.18,
0.272,-0.67,1.42,0.46,-0.04,-0.21,0.20,
0.275,-0.67,1.42,0.46,-0.02,-0.18,0.23,
0.278,-1.05,1.58,0.40,-0.02,-0.18,0.23,
0.278,-1.05,1.58,0.40,0.00,-0.16,0.27,
0.28,-1.05,1.58,0.40,0.01,-0.14,0.31,
0.282,-1.01,1.25,-0.16,0.01,-0.14,0.31,
0.283,-1.01,1.25,-0.16,0.02,-0.10,0.34,
0.284,-1.01,1.25,-0.16,0.03,-0.07,0.38,
0.289,-0.78,0.72,-0.25,0.03,-0.07,0.38,
0.289,-0.78,0.72,-0.25,0.04,-0.03,0.40,
0.29,-0.78,0.72,-0.25,0.04,0.01,0.42,
0.294,-0.59,0.23,-0.64,0.04,0.01,0.42,
0.294,-0.59,0.23,-0.64,0.03,0.06,0.44,
0.294,-0.59,0.23,-0.64,0.03,0.11,0.45,
0.305,-0.34,-0.15,-0.99,0.03,0.11,0.45,
0.306,-0.34,-0.15,-0.99,0.01,0.16,0.45,
0.306,-0.34,-0.15,-0.99,-0.00,0.20,0.46,
0.306,-0.07,-0.47,-0.96,-0.00,0.20,0.46,
0.307,-0.07,-0.47,-0.96,-0.02,0.23,0.45,
0.307,-0.07,-0.47,-0.96,-0.05,0.26,0.45,
0.307,0.16,-0.71,-0.87,-0.05,0.26,0.45,
0.308,0.16,-0.71,-0.87,-0.07,0.28,0.44,
0.31,0.16,-0.71,-0.87,-0.10,0.30,0.42,
0.312,0.35,-0.86,-0.75,-0.10,0.30,0.42,
0.313,0.35,-0.86,-0.75,-0.13,0.31,0.40,
0.318,0.35,-0.86,-0.75,-0.16,0.30,0.39,
0.319,0.43,-0.94,-0.56,-0.16,0.30,0.39,
0.319,0.43,-0.94,-0.56,-0.19,0.30,0.37,
0.321,0.43,-0.94,-0.56,-0.23,0.28,0.35,
0.324,0.41,-0.99,-0.44,-0.23,0.28,0.35,
0.325,0.41,-0.99,-0.44,-0.26,0.25,0.34,
0.334,0.41,-0.99,-0.44,-0.29,0.22,0.32,
0.334,0.43,-1.04,-0.44,-0.29,0.22,0.32,
0.335,0.43,-1.04,-0.44,-0.33,0.19,0.31,
0.335,0.43,-1.04,-0.44,-0.36,0.15,0.29,
0.336,0.43,-1.07,-0.39,-0.36,0.15,0.29,
0.336,0.43,-1.07,-0.39,-0.39,0.11,0.28,
0.337,0.43,-1.07,-0.39,-0.43,0.07,0.27,
0.337,0.43,-1.08,-0.28,-0.43,0.07,0.27,
0.338,0.43,-1.08,-0.28,-0.46,0.02,0.25,
0.341,0.43,-1.08,-0.28,-0.49,-0.03,0.23,
0.344,0.45,-1.03,-0.18,-0.49,-0.03,0.23,
0.345,0.45,-1.03,-0.18,-0.52,-0.07,0.22,
0.346,0.45,-1.03,-0.18,-0.55,-0.11,0.21,
0.348,0.44,-0.95,-0.06,-0.55,-0.11,0.21,
0.349,0.44,-0.95,-0.06,-0.57,-0.15,0.19,
0.349,0.44,-0.95,-0.06,-0.59,-0.19,0.17,
0.352,0.45,-0.82,0.10,-0.59,-0.19,0.17,
0.353,0.45,-0.82,0.10,-0.61,-0.22,0.16,
0.354,0.45,-0.82,0.10,-0.63,-0.25,0.14,
0.358,0.43,-0.64,0.13,-0.63,-0.25,0.14,
0.359,0.43,-0.64,0.13,-0.64,-0.28,0.12,
0.36,0.43,-0.64,0.13,-0.65,-0.30,0.10,
0.363,0.40,-0.45,0.09,-0.65,-0.30,0.10,
0.363,0.40,-0.45,0.09,-0.66,-0.31,0.08,
0.365,0.40,-0.45,0.09,-0.67,-0.32,0.06,
0.369,0.37,-0.24,0.01,-0.67,-0.32,0.06,
0.37,0.37,-0.24,0.01,-0.68,-0.32,0.05,
0.37,0.37,-0.24,0.01,-0.68,-0.32,0.03,
0.374,0.29,-0.05,-0.02,-0.68,-0.32,0.03,
0.374,0.29,-0.05,-0.02,-0.69,-0.32,0.01,
0.377,0.29,-0.05,-0.02,-0.69,-0.31,-0.00,
0.378,0.17,0.14,-0.02,-0.69,-0.31,-0.00,
0.378,0.17,0.14,-0.02,-0.69,-0.29,-0.01,
0.381,0.17,0.14,-0.02,-0.69,-0.27,-0.03,
0.384,0.07,0.32,-0.03,-0.69,-0.27,-0.03,
0.384,0.07,0.32,-0.03,-0.69,-0.25,-0.03,
0.385,0.07,0.32,-0.03,-0.68,-0.23,-0.04,
0.389,-0.04,0.47,0.08,-0.68,-0.23,-0.04,
0.389,-0.04,0.47,0.08,-0.67,-0.21,-0.05,
0.392,-0.04,0.47,0.08,-0.67,-0.19,-0.05,
0.393,-0.18,0.57,0.21,-0.67,-0.19,-0.05,
0.393,-0.18,0.57,0.21,-0.65,-0.17,-0.05,
0.396,-0.18,0.57,0.21,-0.64,-0.15,-0.06,
0.409,-0.31,0.63,0.36,-0.64,-0.15,-0.06,
0.41,-0.31,0.63,0.36,-0.63,-0.13,-0.06,
0.411,-0.31,0.63,0.36,-0.61,-0.12,-0.06,
0.412,-0.37,0.64,0.54,-0.61,-0.12,-0.06,
0.412,-0.37,0.64,0.54,-0.60,-0.11,-0.06,
0.413,-0.37,0.64,0.54,-0.58,-0.10,-0.06,
0.413,-0.33,0.55,0.66,-0.58,-0.10,-0.06,
0.414,-0.33,0.55,0.66,-0.56,-0.10,-0.05,
0.414,-0.33,0.55,0.66,-0.55,-0.10,-0.05,
0.414,-0.25,0.42,0.74,-0.55,-0.10,-0.05,
0.415,-0.25,0.42,0.74,-0.53,-0.10,-0.05,
0.416,-0.25,0.42,0.74,-0.51,-0.10,-0.05,
0.426,-0.15,0.26,0.83,-0.51,-0.10,-0.05,
0.427,-0.15,0.26,0.83,-0.50,-0.11,-0.04,
0.428,-0.15,0.26,0.83,-0.48,-0.13,-0.04,
0.428,-0.12,0.06,0.87,-0.48,-0.13,-0.04,
0.429,-0.12,0.06,0.87,-0.46,-0.14,-0.04,
0.429,-0.12,0.06,0.87,-0.44,-0.16,-0.04,
0.43,-0.07,-0.14,0.83,-0.44,-0.16,-0.04,
0.43,-0.07,-0.14,0.83,-0.43,-0.17,-0.03,
0.431,-0.07,-0.14,0.83,-0.41,-0.18,-0.03,
0.442,-0.02,-0.29,0.77,-0.41,-0.18,-0.03,
0.443,-0.02,-0.29,0.77,-0.39,-0.19,-0.03,
0.444,-0.02,-0.29,0.77,-0.37,-0.19,-0.03,
0.445,0.04,-0.39,0.73,-0.37,-0.19,-0.03,
0.445,0.04,-0.39,0.73,-0.35,-0.19,-0.03,
0.446,0.04,-0.39,0.73,-0.33,-0.18,-0.04,
0.446,0.07,-0.44,0.65,-0.33,-0.18,-0.04,
0.447,0.07,-0.44,0.65,-0.31,-0.17,-0.04,
0.447,0.07,-0.44,0.65,-0.29,-0.15,-0.05,
0.458,0.09,-0.44,0.62,-0.29,-0.15,-0.05,
0.461,0.09,-0.44,0.62,-0.26,-0.13,-0.06,
0.461,0.09,-0.44,0.62,-0.24,-0.11,-0.07,
0.462,0.16,-0.40,0.63,-0.24,-0.11,-0.07,
0.463,0.16,-0.40,0.63,-0.21,-0.09,-0.07,
0.464,0.16,-0.40,0.63,-0.19,-0.07,-0.08,
0.465,0.25,-0.41,0.60,-0.19,-0.07,-0.08,
0.466,0.25,-0.41,0.60,-0.16,-0.04,-0.10,
0.466,0.25,-0.41,0.60,-0.14,-0.01,-0.11,
0.468,0.40,-0.39,0.49,-0.14,-0.01,-0.11,
0.468,0.40,-0.39,0.49,-0.11,0.01,-0.12,
0.469,0.40,-0.39,0.49,-0.09,0.04,-0.14,
0.477,0.50,-0.36,0.51,-0.09,0.04,-0.14,
0.479,0.50,-0.36,0.51,-0.06,0.06,-0.15,
0.48,0.50,-0.36,0.51,-0.04,0.07,-0.17,
0.48,0.50,-0.36,0.51,-0.01,0.09,-0.18,
0.481,0.52,-0.28,0.46,-0.01,0.09,-0.18,
0.482,0.52,-0.28,0.46,0.01,0.10,-0.19,
0.482,0.51,-0.11,0.40,0.01,0.10,-0.19,
0.483,0.51,-0.11,0.40,0.04,0.11,-0.20,
0.483,0.51,-0.11,0.40,0.06,0.13,-0.21,
0.484,0.51,-0.11,0.40,0.08,0.14,-0.21,
0.485,0.47,0.00,0.27,0.08,0.14,-0.21,
0.494,0.47,0.00,0.27,0.10,0.16,-0.22,
0.496,0.47,0.00,0.27,0.12,0.17,-0.22,
0.497,0.43,0.00,0.20,0.12,0.17,-0.22,
0.497,0.43,0.00,0.20,0.14,0.18,-0.23,
0.506,0.43,0.00,0.20,0.16,0.19,-0.23,
0.506,0.39,-0.04,0.09,0.16,0.19,-0.23,
0.507,0.39,-0.04,0.09,0.17,0.20,-0.24,
0.507,0.38,-0.05,0.03,0.17,0.20,-0.24,
0.507,0.38,-0.05,0.03,0.19,0.21,-0.25,
0.508,0.38,-0.05,0.03,0.21,0.22,-0.26,
0.508,0.38,-0.01,0.13,0.21,0.22,-0.26,
0.509,0.38,-0.01,0.13,0.22,0.23,-0.27,
0.509,0.38,-0.01,0.13,0.24,0.23,-0.28,
0.509,0.37,0.05,0.28,0.24,0.23,-0.28,
0.51,0.37,0.05,0.28,0.25,0.23,-0.30,
0.51,0.37,0.05,0.28,0.27,0.22,-0.31,
0.514,0.24,0.10,0.47,0.27,0.22,-0.31,
0.515,0.24,0.10,0.47,0.28,0.21,-0.32,
0.516,0.24,0.10,0.47,0.30,0.19,-0.33,
0.521,0.09,0.15,0.63,0.30,0.19,-0.33,
0.523,0.09,0.15,0.63,0.31,0.18,-0.34,
0.523,0.09,0.15,0.63,0.33,0.16,-0.35,
0.523,0.02,0.17,0.64,0.33,0.16,-0.35,
0.524,0.02,0.17,0.64,0.35,0.14,-0.35,
0.526,0.02,0.17,0.64,0.37,0.12,-0.37,
0.528,0.04,0.18,0.59,0.37,0.12,-0.37,
0.528,0.04,0.18,0.59,0.38,0.10,-0.38,
0.531,0.04,0.18,0.59,0.40,0.09,-0.39,
0.536,0.03,0.15,0.46,0.40,0.09,-0.39,
0.537,0.03,0.15,0.46,0.41,0.08,-0.39,
0.537,0.03,0.15,0.46,0.43,0.07,-0.40,
0.538,0.08,0.09,0.19,0.43,0.07,-0.40,
0.539,0.08,0.09,0.19,0.44,0.07,-0.41,
0.54,0.08,0.09,0.19,0.44,0.08,-0.42,
0.543,0.08,0.09,0.19,0.44,0.09,-0.42,
0.544,0.13,0.03,-0.09,0.44,0.09,-0.42,
0.546,0.13,0.03,-0.09,0.44,0.10,-0.43,
0.55,0.06,-0.08,-0.34,0.44,0.10,-0.43,
0.551,0.06,-0.08,-0.34,0.43,0.13,-0.43,
0.552,0.06,-0.08,-0.34,0.42,0.15,-0.43,
0.554,-0.00,-0.18,-0.59,0.42,0.15,-0.43,
0.554,-0.00,-0.18,-0.59,0.41,0.18,-0.43,
0.556,-0.00,-0.18,-0.59,0.39,0.21,-0.43,
0.558,0.04,-0.23,-0.88,0.39,0.21,-0.43,
0.559,0.04,-0.23,-0.88,0.37,0.24,-0.42,
0.56,0.04,-0.23,-0.88,0.35,0.27,-0.41,
0.566,0.00,-0.30,-1.13,0.35,0.27,-0.41,
0.567,0.00,-0.30,-1.13,0.32,0.30,-0.40,
0.568,0.00,-0.30,-1.13,0.29,0.34,-0.40,
0.568,-0.11,-0.36,-1.06,0.29,0.34,-0.40,
0.568,-0.11,-0.36,-1.06,0.26,0.37,-0.39,
0.571,-0.11,-0.36,-1.06,0.22,0.39,-0.38,
0.573,-0.22,-0.40,-0.79,0.22,0.39,-0.38,
0.574,-0.22,-0.40,-0.79,0.19,0.41,-0.36,
0.575,-0.22,-0.40,-0.79,0.15,0.42,-0.36,
0.578,-0.23,-0.35,-0.61,0.15,0.42,-0.36,
0.579,-0.23,-0.35,-0.61,0.12,0.42,-0.34,
0.581,-0.23,-0.35,-0.61,0.08,0.41,-0.34,
0.585,-0.17,-0.29,-0.46,0.08,0.41,-0.34,
0.585,-0.17,-0.29,-0.46,0.04,0.39,-0.33,
0.586,-0.17,-0.29,-0.46,-0.00,0.35,-0.32,
0.589,-0.12,-0.29,-0.29,-0.00,0.35,-0.32,
0.59,-0.12,-0.29,-0.29,-0.05,0.31,-0.32,
0.59,-0.12,-0.29,-0.29,-0.09,0.26,-0.31,
0.593,-0.13,-0.29,-0.13,-0.09,0.26,-0.31,
0.594,-0.13,-0.29,-0.13,-0.13,0.21,-0.31,
0.596,-0.13,-0.29,-0.13,-0.17,0.14,-0.32,
0.603,-0.16,-0.25,-0.01,-0.17,0.14,-0.32,
0.604,-0.16,-0.25,-0.01,-0.21,0.08,-0.32,
0.604,-0.16,-0.25,-0.01,-0.25,0.00,-0.33,
0.605,-0.20,-0.18,0.22,-0.25,0.00,-0.33,
0.605,-0.20,-0.18,0.22,-0.28,-0.08,-0.33,
0.606,-0.20,-0.18,0.22,-0.32,-0.17,-0.35,
0.609,-0.24,-0.05,0.51,-0.32,-0.17,-0.35,
0.61,-0.24,-0.05,0.51,-0.35,-0.26,-0.36,
0.61,-0.24,-0.05,0.51,-0.38,-0.36,-0.37,
0.615,-0.26,-0.02,0.69,-0.38,-0.36,-0.37,
0.616,-0.26,-0.02,0.69,-0.41,-0.45,-0.38,
0.618,-0.26,-0.02,0.69,-0.44,-0.55,-0.39,
0.619,-0.30,-0.09,0.80,-0.44,-0.55,-0.39,
0.62,-0.30,-0.09,0.80,-0.46,-0.64,-0.40,
0.62,-0.30,-0.09,0.80,-0.49,-0.73,-0.41,
0.623,-0.21,-0.23,0.74,-0.49,-0.73,-0.41,
0.624,-0.21,-0.23,0.74,-0.52,-0.83,-0.41,
0.625,-0.21,-0.23,0.74,-0.55,-0.92,-0.42,
0.629,-0.07,-0.34,0.42,-0.55,-0.92,-0.42,
0.63,-0.07,-0.34,0.42,-0.58,-1.01,-0.42,
0.63,-0.07,-0.34,0.42,-0.61,-1.09,-0.42,
0.634,0.10,-0.41,0.11,-0.61,-1.09,-0.42,
0.635,0.10,-0.41,0.11,-0.65,-1.18,-0.42,
0.636,0.10,-0.41,0.11,-0.68,-1.25,-0.41,
0.64,0.26,-0.36,-0.18,-0.68,-1.25,-0.41,
0.64,0.26,-0.36,-0.18,-0.72,-1.33,-0.41,
0.641,0.26,-0.36,-0.18,-0.76,-1.39,-0.40,
0.644,0.37,-0.25,-0.47,-0.76,-1.39,-0.40,
0.644,0.37,-0.25,-0.47,-0.80,-1.45,-0.39,
0.648,0.37,-0.25,-0.47,-0.84,-1.50,-0.38,
0.649,0.37,-0.10,-0.74,-0.84,-1.50,-0.38,
0.649,0.37,-0.10,-0.74,-0.89,-1.53,-0.37,
0.652,0.37,-0.10,-0.74,-0.92,-1.57,-0.36,
0.653,0.24,-0.01,-0.91,-0.92,-1.57,-0.36,
0.654,0.24,-0.01,-0.91,-0.97,-1.59,-0.35,
0.656,0.24,-0.01,-0.91,-1.00,-1.61,-0.33,
0.658,0.03,0.10,-0.97,-1.00,-1.61,-0.33,
0.674,0.03,0.10,-0.97,-1.04,-1.62,-0.31,
0.675,0.03,0.10,-0.97,-1.08,-1.63,-0.30,
0.676,-0.14,0.27,-0.91,-1.08,-1.63,-0.30,
0.676,-0.14,0.27,-0.91,-1.11,-1.64,-0.27,
0.677,-0.14,0.27,-0.91,-1.15,-1.65,-0.25,
0.678,-0.31,0.45,-0.75,-1.15,-1.65,-0.25,
0.679,-0.31,0.45,-0.75,-1.18,-1.65,-0.23,
0.68,-0.31,0.45,-0.75,-1.22,-1.66,-0.20,
0.68,-0.52,0.57,-0.56,-1.22,-1.66,-0.20,
0.681,-0.52,0.57,-0.56,-1.26,-1.67,-0.16,
0.682,-0.52,0.57,-0.56,-1.30,-1.68,-0.11,
0.682,-0.52,0.57,-0.56,-1.35,-1.70,-0.05,
0.683,-0.78,0.52,-0.36,-1.35,-1.70,-0.05,
0.684,-0.78,0.52,-0.36,-1.40,-1.71,0.03,
0.687,-1.12,0.27,-0.36,-1.40,-1.71,0.03,
0.688,-1.12,0.27,-0.36,-1.46,-1.73,0.12,
0.688,-1.12,0.27,-0.36,-1.52,-1.75,0.20,
0.693,-0.95,0.38,-0.03,-1.52,-1.75,0.20,
0.694,-0.95,0.38,-0.03,-1.58,-1.78,0.28,
0.695,-0.95,0.38,-0.03,-1.62,-1.83,0.34,
0.695,-0.62,0.45,0.37,-1.62,-1.83,0.34,
0.696,-0.62,0.45,0.37,-1.67,-1.87,0.40,
0.696,-0.62,0.45,0.37,-1.71,-1.92,0.44,
0.699,-0.20,0.44,0.50,-1.71,-1.92,0.44,
0.7,-0.20,0.44,0.50,-1.74,-1.96,0.47,
0.701,-0.20,0.44,0.50,-1.76,-2.01,0.49,
0.703,0.34,0.43,0.44,-1.76,-2.01,0.49,
0.704,0.34,0.43,0.44,-1.79,-2.03,0.50,
0.707,0.34,0.43,0.44,-1.80,-2.05,0.49,
0.711,0.79,0.39,0.35,-1.80,-2.05,0.49,
0.711,0.79,0.39,0.35,-1.80,-2.05,0.48,
0.712,0.79,0.39,0.35,-1.80,-2.03,0.46,
0.714,0.88,0.52,-0.09,-1.80,-2.03,0.46,
0.716,0.88,0.52,-0.09,-1.79,-1.99,0.45,
0.716,0.88,0.52,-0.09,-1.78,-1.93,0.43,
0.718,0.60,0.66,-0.64,-1.78,-1.93,0.43,
0.719,0.60,0.66,-0.64,-1.77,-1.86,0.42,
0.721,0.60,0.66,-0.64,-1.75,-1.77,0.42,
0.725,0.02,0.78,-1.28,-1.75,-1.77,0.42,
0.725,0.02,0.78,-1.28,-1.73,-1.66,0.43,
0.726,0.02,0.78,-1.28,-1.70,-1.53,0.45,
0.729,-0.55,1.02,-1.86,-1.70,-1.53,0.45,
0.729,-0.55,1.02,-1.86,-1.66,-1.38,0.48,
0.742,-0.55,1.02,-1.86,-1.63,-1.22,0.53,
0.744,-1.05,1.24,-2.11,-1.63,-1.22,0.53,
0.744,-1.05,1.24,-2.11,-1.59,-1.05,0.58,
0.745,-1.05,1.24,-2.11,-1.54,-0.89,0.64,
0.745,-1.46,1.32,-2.06,-1.54,-0.89,0.64,
0.746,-1.46,1.32,-2.06,-1.49,-0.74,0.71,
0.747,-1.46,1.32,-2.06,-1.44,-0.58,0.78,
0.747,-1.65,1.31,-1.93,-1.44,-0.58,0.78,
0.748,-1.65,1.31,-1.93,-1.37,-0.41,0.84,
0.749,-1.65,1.31,-1.93,-1.30,-0.25,0.90,
0.749,-1.31,1.20,-1.45,-1.30,-0.25,0.90,
0.75,-1.31,1.20,-1.45,-1.22,-0.10,0.96,
0.75,-1.31,1.20,-1.45,-1.15,0.01,1.01,
0.757,-0.94,1.18,-0.81,-1.15,0.01,1.01,
0.758,-0.94,1.18,-0.81,-1.07,0.12,1.05,
0.759,-0.94,1.18,-0.81,-0.98,0.22,1.09,
0.759,-0.70,1.31,-0.29,-0.98,0.22,1.09,
0.759,-0.70,1.31,-0.29,-0.88,0.34,1.12,
0.762,-0.70,1.31,-0.29,-0.78,0.46,1.14,
0.767,-0.57,1.41,0.09,-0.78,0.46,1.14,
0.768,-0.57,1.41,0.09,-0.67,0.60,1.15,
0.769,-0.57,1.41,0.09,-0.55,0.73,1.16,
0.771,0.06,1.55,0.41,-0.55,0.73,1.16,
0.772,0.06,1.55,0.41,-0.44,0.85,1.15,
0.772,0.06,1.55,0.41,-0.32,0.96,1.14,
0.774,0.58,1.45,0.51,-0.32,0.96,1.14,
0.775,0.58,1.45,0.51,-0.20,1.08,1.12,
0.778,0.58,1.45,0.51,-0.09,1.19,1.10,
0.781,0.62,0.95,0.52,-0.09,1.19,1.10,
0.782,0.62,0.95,0.52,0.02,1.29,1.08,
0.782,0.62,0.95,0.52,0.13,1.39,1.05,
0.787,0.68,0.40,0.53,0.13,1.39,1.05,
0.788,0.68,0.40,0.53,0.23,1.50,1.03,
0.788,0.68,0.40,0.53,0.33,1.60,1.00,
0.789,0.75,-0.07,0.50,0.33,1.60,1.00,
0.789,0.75,-0.07,0.50,0.42,1.70,0.97,
0.792,0.75,-0.07,0.50,0.51,1.79,0.94,
0.794,0.81,-0.49,0.52,0.51,1.79,0.94,
0.795,0.81,-0.49,0.52,0.60,1.87,0.92,
0.803,0.81,-0.49,0.52,0.69,1.94,0.89,
0.804,0.98,-0.66,0.65,0.69,1.94,0.89,
0.805,0.98,-0.66,0.65,0.77,2.00,0.86,
0.805,0.98,-0.66,0.65,0.86,2.05,0.83,
0.806,1.17,-0.57,0.95,0.86,2.05,0.83,
0.807,1.17,-0.57,0.95,0.94,2.08,0.81,
0.808,1.17,-0.57,0.95,1.03,2.09,0.78,
0.811,1.23,-0.26,1.53,1.03,2.09,0.78,
0.812,1.23,-0.26,1.53,1.12,2.08,0.76,
0.812,1.23,-0.26,1.53,1.21,2.05,0.74,
0.816,1.08,0.13,2.37,1.21,2.05,0.74,
0.817,1.08,0.13,2.37,1.30,2.00,0.72,
0.818,1.08,0.13,2.37,1.41,1.94,0.71,
0.819,0.77,0.32,3.07,1.41,1.94,0.71,
0.82,0.77,0.32,3.07,1.51,1.85,0.69,
0.822,0.77,0.32,3.07,1.62,1.76,0.68,
0.824,0.43,0.18,3.31,1.62,1.76,0.68,
0.825,0.43,0.18,3.31,1.72,1.66,0.68,
0.838,0.43,0.18,3.31,1.83,1.56,0.67,
0.838,0.54,-0.12,3.04,1.83,1.56,0.67,
0.839,0.54,-0.12,3.04,1.92,1.46,0.66,
0.839,0.54,-0.12,3.04,2.02,1.35,0.65,
0.84,0.92,-0.35,2.49,2.02,1.35,0.65,
0.84,0.92,-0.35,2.49,2.11,1.25,0.64,
0.841,0.92,-0.35,2.49,2.18,1.16,0.63,
0.841,0.89,-0.97,1.78,2.18,1.16,0.63,
0.842,0.89,-0.97,1.78,2.25,1.08,0.62,
0.842,0.89,-0.97,1.78,2.31,0.98,0.60,
0.848,0.41,-2.06,1.69,2.31,0.98,0.60,
0.849,0.41,-2.06,1.69,2.36,0.85,0.57,
0.85,0.41,-2.06,1.69,2.39,0.70,0.54,
0.85,-0.58,-3.33,1.64,2.39,0.70,0.54,
0.851,-0.58,-3.33,1.64,2.40,0.54,0.51,
0.852,-0.58,-3.33,1.64,2.40,0.37,0.47,
0.855,-1.44,-4.22,0.92,2.40,0.37,0.47,
0.855,-1.44,-4.22,0.92,2.38,0.19,0.42,
0.856,-1.44,-4.22,0.92,2.34,0.02,0.38,
0.859,-1.91,-4.60,-0.76,2.34,0.02,0.38,
0.86,-1.91,-4.60,-0.76,2.28,-0.11,0.33,
0.861,-1.91,-4.60,-0.76,2.16,-0.12,0.27,
0.867,-2.07,-4.94,-3.78,2.16,-0.12,0.27,
0.868,-2.07,-4.94,-3.78,2.02,-0.11,0.21,
0.868,-2.07,-4.94,-3.78,1.87,-0.11,0.14,
0.869,-1.40,-4.08,-4.65,1.87,-0.11,0.14,
0.869,-1.40,-4.08,-4.65,1.70,-0.14,0.07,
0.871,-1.40,-4.08,-4.65,1.53,-0.16,0.01,
0.874,-0.52,-2.71,-5.68,1.53,-0.16,0.01,
0.875,-0.52,-2.71,-5.68,1.34,-0.16,-0.05,
0.877,-0.52,-2.71,-5.68,1.14,-0.12,-0.10,
0.878,0.21,-1.17,-5.93,1.14,-0.12,-0.10,
0.879,0.21,-1.17,-5.93,0.94,-0.08,-0.14,
0.883,0.21,-1.17,-5.93,0.76,-0.04,-0.18,
0.885,0.54,0.52,-4.60,0.76,-0.04,-0.18,
0.885,0.54,0.52,-4.60,0.60,-0.00,-0.22,
0.886,0.54,0.52,-4.60,0.45,0.02,-0.24,
0.888,0.52,1.87,-2.77,0.45,0.02,-0.24,
0.889,0.52,1.87,-2.77,0.32,-0.01,-0.27,
0.892,0.52,1.87,-2.77,0.19,-0.08,-0.28,
0.895,0.66,2.29,-1.69,0.19,-0.08,-0.28,
0.896,0.66,2.29,-1.69,0.08,-0.17,-0.30,
0.897,0.66,2.29,-1.69,-0.02,-0.24,-0.31,
0.904,1.25,1.87,-1.99,-0.02,-0.24,-0.31,
0.905,1.25,1.87,-1.99,-0.12,-0.26,-0.33,
0.905,1.25,1.87,-1.99,-0.23,-0.19,-0.36,
0.906,2.28,1.38,-2.44,-0.23,-0.19,-0.36,
0.906,2.28,1.38,-2.44,-0.31,-0.14,-0.41,
0.907,2.28,1.38,-2.44,-0.37,-0.11,-0.46,
0.909,2.73,1.16,-0.52,-0.37,-0.11,-0.46,
0.91,2.73,1.16,-0.52,-0.40,-0.13,-0.49,
0.912,2.73,1.16,-0.52,-0.38,-0.22,-0.48,
0.917,1.95,1.25,1.90,-0.38,-0.22,-0.48,
0.918,1.95,1.25,1.90,-0.33,-0.31,-0.43,
0.919,1.95,1.25,1.90,-0.25,-0.43,-0.37,
0.919,0.87,0.64,3.64,-0.25,-0.43,-0.37,
0.92,0.87,0.64,3.64,-0.13,-0.56,-0.30,
0.922,0.87,0.64,3.64,0.02,-0.67,-0.25,
0.925,0.26,-0.40,3.80,0.02,-0.67,-0.25,
0.926,0.26,-0.40,3.80,0.16,-0.73,-0.19,
0.927,0.26,-0.40,3.80,0.30,-0.74,-0.16,
0.929,0.59,-1.13,2.83,0.30,-0.74,-0.16,
0.93,0.59,-1.13,2.83,0.44,-0.71,-0.14,
0.933,0.59,-1.13,2.83,0.57,-0.63,-0.12,
0.934,0.82,-1.42,1.56,0.57,-0.63,-0.12,
0.935,0.82,-1.42,1.56,0.69,-0.50,-0.11,
0.938,0.82,-1.42,1.56,0.81,-0.32,-0.10,
0.94,0.57,-1.38,0.33,0.81,-0.32,-0.10,
0.941,0.57,-1.38,0.33,0.93,-0.11,-0.10,
0.941,0.57,-1.38,0.33,1.04,0.16,-0.05,
0.944,-1.52,-1.94,-0.61,1.04,0.16,-0.05,
0.944,-1.52,-1.94,-0.61,1.14,0.48,0.04,
0.947,-1.52,-1.94,-0.61,1.23,0.75,0.14,
0.949,-2.59,-1.49,0.04,1.23,0.75,0.14,
0.95,-2.59,-1.49,0.04,1.31,0.92,0.24,
0.954,-2.59,-1.49,0.04,1.38,1.00,0.34,
0.955,-2.87,-0.88,1.35,1.38,1.00,0.34,
0.955,-2.87,-0.88,1.35,1.43,0.99,0.43,
0.958,-2.87,-0.88,1.35,1.47,0.90,0.51,
0.961,-3.01,-0.56,2.43,1.47,0.90,0.51,
0.962,-3.01,-0.56,2.43,1.50,0.75,0.59,
0.962,-3.01,-0.56,2.43,1.52,0.54,0.65,
0.967,-2.94,-0.42,2.74,1.52,0.54,0.65,
0.97,-2.94,-0.42,2.74,1.53,0.31,0.71,
0.97,-2.94,-0.42,2.74,1.52,0.06,0.76,
0.971,-2.46,-0.26,2.24,1.52,0.06,0.76,
0.973,-2.46,-0.26,2.24,1.51,-0.18,0.79,
0.973,-2.46,-0.26,2.24,1.50,-0.41,0.81,
0.975,-1.82,-0.01,1.35,1.50,-0.41,0.81,
0.976,-1.82,-0.01,1.35,1.47,-0.64,0.81,
0.977,-1.82,-0.01,1.35,1.44,-0.87,0.79,
0.981,-1.17,0.06,0.46,1.44,-0.87,0.79,
0.982,-1.17,0.06,0.46,1.38,-1.12,0.75,
0.984,-0.65,0.22,-0.57,1.38,-1.12,0.75,
0.985,-0.65,0.22,-0.57,1.31,-1.39,0.69,
0.986,-0.65,0.22,-0.57,1.21,-1.66,0.62,
0.987,-0.65,0.22,-0.57,1.10,-1.93,0.55,
0.989,-0.59,0.58,-1.91,1.10,-1.93,0.55,
0.989,-0.59,0.58,-1.91,0.98,-2.18,0.48,
0.991,-0.59,0.58,-1.91,0.86,-2.40,0.43,
1.009,-1.04,1.00,-3.03,0.86,-2.40,0.43,
1.01,-1.04,1.00,-3.03,0.75,-2.60,0.38,
1.012,-1.04,1.00,-3.03,0.65,-2.77,0.36,
1.013,-1.65,1.32,-3.26,0.65,-2.77,0.36,
1.013,-1.65,1.32,-3.26,0.57,-2.92,0.36,
1.014,-1.65,1.32,-3.26,0.50,-3.07,0.39,
1.017,-2.03,1.37,-2.99,0.50,-3.07,0.39,
1.018,-2.03,1.37,-2.99,0.45,-3.20,0.43,
1.018,-2.03,1.37,-2.99,0.41,-3.32,0.48,
1.019,-1.93,1.19,-2.69,0.41,-3.32,0.48,
1.019,-1.93,1.19,-2.69,0.39,-3.42,0.54,
1.019,-1.93,1.19,-2.69,0.37,-3.53,0.61,
1.022,-1.06,0.84,-2.27,0.37,-3.53,0.61,
1.022,-1.06,0.84,-2.27,0.37,-3.63,0.69,
1.023,-1.06,0.84,-2.27,0.39,-3.72,0.77,
1.023,-0.46,0.80,-1.97,0.39,-3.72,0.77,
1.024,-0.46,0.80,-1.97,0.41,-3.81,0.84,
1.024,-0.46,0.80,-1.97,0.45,-3.89,0.91,
1.024,-0.10,0.79,-1.57,0.45,-3.89,0.91,
1.025,-0.10,0.79,-1.57,0.49,-3.96,0.98,
1.031,-0.10,0.79,-1.57,0.54,-4.01,1.03,
1.032,0.28,0.58,-1.31,0.54,-4.01,1.03,
1.033,0.28,0.58,-1.31,0.60,-4.05,1.07,
1.033,0.28,0.58,-1.31,0.66,-4.07,1.11,
1.035,0.75,0.26,-1.12,0.66,-4.07,1.11,
1.036,0.75,0.26,-1.12,0.73,-4.07,1.13,
1.036,0.75,0.26,-1.12,0.78,-4.05,1.15,
1.041,1.43,0.07,-2.08,0.78,-4.05,1.15,
1.041,1.43,0.07,-2.08,0.80,-3.93,1.15,
1.042,1.43,0.07,-2.08,0.75,-3.64,1.15,
1.046,2.39,0.19,-5.69,0.75,-3.64,1.15,
1.046,2.39,0.19,-5.69,0.63,-3.18,1.16,
1.047,2.39,0.19,-5.69,0.51,-2.70,1.19,
1.052,2.22,0.36,-4.31,0.51,-2.70,1.19,
1.053,2.22,0.36,-4.31,0.45,-2.33,1.21,
1.053,2.22,0.36,-4.31,0.40,-2.06,1.22,
1.056,1.39,0.39,-2.27,0.40,-2.06,1.22,
1.057,1.39,0.39,-2.27,0.35,-1.83,1.24,
1.058,1.39,0.39,-2.27,0.29,-1.63,1.25,
1.061,1.20,0.16,-2.23,0.29,-1.63,1.25,
1.062,1.20,0.16,-2.23,0.21,-1.46,1.27,
1.063,1.20,0.16,-2.23,0.13,-1.35,1.28,
1.067,1.53,-0.18,-1.55,0.13,-1.35,1.28,
1.068,1.53,-0.18,-1.55,0.06,-1.29,1.28,
1.069,1.53,-0.18,-1.55,-0.00,-1.27,1.29,
1.071,1.33,-0.25,-1.00,-0.00,-1.27,1.29,
1.072,1.33,-0.25,-1.00,-0.06,-1.29,1.30,
1.075,1.33,-0.25,-1.00,-0.11,-1.31,1.35,
1.076,0.29,-0.01,-0.98,-0.11,-1.31,1.35,
1.076,0.29,-0.01,-0.98,-0.16,-1.34,1.41,
1.077,0.29,-0.01,-0.98,-0.20,-1.37,1.49,
1.083,-1.02,0.20,-1.06,-0.20,-1.37,1.49,
1.084,-1.02,0.20,-1.06,-0.24,-1.41,1.59,
1.085,-1.02,0.20,-1.06,-0.27,-1.46,1.71,
1.086,-2.24,0.34,-1.24,-0.27,-1.46,1.71,
1.086,-2.24,0.34,-1.24,-0.29,-1.50,1.84,
1.09,-3.22,0.20,-1.17,-0.29,-1.50,1.84,
1.091,-3.22,0.20,-1.17,-0.30,-1.55,1.98,
1.091,-3.22,0.20,-1.17,-0.31,-1.61,2.11,
1.092,-3.22,0.20,-1.17,-0.32,-1.69,2.23,
1.094,-3.83,-0.18,-0.72,-0.32,-1.69,2.23,
1.095,-3.83,-0.18,-0.72,-0.31,-1.80,2.35,
1.102,-3.83,-0.18,-0.72,-0.30,-1.92,2.45,
1.104,-3.91,-0.66,-0.19,-0.30,-1.92,2.45,
1.105,-3.91,-0.66,-0.19,-0.28,-2.05,2.54,
1.105,-3.91,-0.66,-0.19,-0.24,-2.19,2.61,
1.106,-3.46,-1.18,0.05,-0.24,-2.19,2.61,
1.107,-3.46,-1.18,0.05,-0.20,-2.33,2.67,
1.107,-3.46,-1.18,0.05,-0.15,-2.47,2.71,
1.111,-2.56,-1.63,0.13,-0.15,-2.47,2.71,
1.112,-2.56,-1.63,0.13,-0.09,-2.60,2.74,
1.113,-2.56,-1.63,0.13,-0.02,-2.72,2.75,
1.116,-1.48,-1.92,0.27,-0.02,-2.72,2.75,
1.117,-1.48,-1.92,0.27,0.05,-2.84,2.74,
1.118,-1.48,-1.92,0.27,0.12,-2.94,2.71,
1.12,-0.34,-2.00,0.64,0.12,-2.94,2.71,
1.121,-0.34,-2.00,0.64,0.19,-3.05,2.67,
1.122,-0.34,-2.00,0.64,0.25,-3.19,2.62,
1.125,0.77,-1.85,1.70,0.25,-3.19,2.62,
1.126,0.77,-1.85,1.70,0.31,-3.35,2.55,
1.127,0.77,-1.85,1.70,0.37,-3.46,2.46,
1.13,1.80,-1.83,1.34,0.37,-3.46,2.46,
1.131,1.80,-1.83,1.34,0.43,-3.54,2.36,
1.135,1.80,-1.83,1.34,0.50,-3.60,2.24,
1.136,2.56,-1.74,1.81,0.50,-3.60,2.24,
1.137,2.56,-1.74,1.81,0.57,-3.66,2.13,
1.138,2.56,-1.74,1.81,0.64,-3.70,2.00,
1.141,2.89,-1.65,1.88,0.64,-3.70,2.00,
1.142,2.89,-1.65,1.88,0.71,-3.72,1.88,
1.142,2.89,-1.65,1.88,0.78,-3.70,1.76,
1.145,2.89,-1.65,1.88,0.85,-3.66,1.65,
1.145,2.95,-1.57,1.38,0.85,-3.66,1.65,
1.148,2.95,-1.57,1.38,0.91,-3.58,1.53,
1.149,2.86,-1.49,0.93,0.91,-3.58,1.53,
1.15,2.86,-1.49,0.93,0.97,-3.49,1.43,
1.152,2.86,-1.49,0.93,1.02,-3.39,1.32,
1.156,2.59,-1.45,0.45,1.02,-3.39,1.32,
1.156,2.59,-1.45,0.45,1.06,-3.27,1.23,
1.159,2.59,-1.45,0.45,1.09,-3.15,1.14,
1.159,2.16,-1.38,-0.19,1.09,-3.15,1.14,
1.172,2.16,-1.38,-0.19,1.10,-3.02,1.07,
1.173,2.16,-1.38,-0.19,1.10,-2.88,1.00,
1.173,1.57,-1.25,-0.72,1.10,-2.88,1.00,
1.174,1.57,-1.25,-0.72,1.08,-2.74,0.94,
1.174,0.70,-1.03,-1.15,1.08,-2.74,0.94,
1.175,0.70,-1.03,-1.15,1.06,-2.60,0.90,
1.175,0.70,-1.03,-1.15,1.02,-2.45,0.87,
1.176,0.70,-1.03,-1.15,0.98,-2.31,0.86,
1.176,-0.27,-0.78,-1.58,0.98,-2.31,0.86,
1.177,-0.27,-0.78,-1.58,0.93,-2.17,0.87,
1.18,-0.27,-0.78,-1.58,0.86,-2.02,0.88,
1.181,-1.09,-0.45,-2.07,0.86,-2.02,0.88,
1.181,-1.09,-0.45,-2.07,0.79,-1.86,0.91,
1.182,-1.09,-0.45,-2.07,0.70,-1.69,0.95,
1.185,-1.76,-0.19,-2.86,0.70,-1.69,0.95,
1.186,-1.76,-0.19,-2.86,0.60,-1.49,0.99,
1.188,-1.76,-0.19,-2.86,0.50,-1.26,1.05,
1.189,-2.51,0.02,-3.52,0.50,-1.26,1.05,
1.19,-2.51,0.02,-3.52,0.40,-1.03,1.12,
1.192,-2.51,0.02,-3.52,0.29,-0.79,1.20,
1.196,-3.31,0.14,-3.60,0.29,-0.79,1.20,
1.196,-3.31,0.14,-3.60,0.19,-0.56,1.29,
1.198,-3.31,0.14,-3.60,0.09,-0.33,1.40,
1.2,-3.95,0.08,-3.57,0.09,-0.33,1.40,
1.201,-3.95,0.08,-3.57,-0.01,-0.10,1.51,
1.203,-3.95,0.08,-3.57,-0.11,0.11,1.62,
1.204,-4.26,-0.10,-3.39,-0.11,0.11,1.62,
1.205,-4.26,-0.10,-3.39,-0.20,0.31,1.73,
1.206,-4.26,-0.10,-3.39,-0.30,0.49,1.84,
1.211,-4.31,-0.34,-3.09,-0.30,0.49,1.84,
1.211,-4.31,-0.34,-3.09,-0.39,0.65,1.94,
1.212,-4.31,-0.34,-3.09,-0.48,0.79,2.04,
1.219,-4.08,-0.60,-2.73,-0.48,0.79,2.04,
1.22,-4.08,-0.60,-2.73,-0.56,0.90,2.12,
1.22,-4.08,-0.60,-2.73,-0.65,1.00,2.20,
1.221,-3.69,-0.80,-2.45,-0.65,1.00,2.20,
1.221,-3.69,-0.80,-2.45,-0.73,1.07,2.27,
1.223,-3.69,-0.80,-2.45,-0.81,1.12,2.32,
1.226,-3.23,-0.92,-2.15,-0.81,1.12,2.32,
1.226,-3.23,-0.92,-2.15,-0.89,1.15,2.37,
1.227,-3.23,-0.92,-2.15,-0.96,1.17,2.41,
1.231,-2.76,-1.01,-1.73,-0.96,1.17,2.41,
1.231,-2.76,-1.01,-1.73,-1.02,1.16,2.44,
1.235,-2.76,-1.01,-1.73,-1.08,1.14,2.46,
1.236,-2.22,-1.10,-1.22,-1.08,1.14,2.46,
1.237,-2.22,-1.10,-1.22,-1.13,1.10,2.47,
1.238,-2.22,-1.10,-1.22,-1.18,1.03,2.47,
1.242,-1.54,-1.24,-0.47,-1.18,1.03,2.47,
1.242,-1.54,-1.24,-0.47,-1.21,0.94,2.47,
1.243,-1.54,-1.24,-0.47,-1.23,0.83,2.45,
1.246,-0.80,-1.38,0.32,-1.23,0.83,2.45,
1.246,-0.80,-1.38,0.32,-1.25,0.72,2.42,
1.25,-0.80,-1.38,0.32,-1.26,0.59,2.38,
1.251,-0.20,-1.49,1.06,-1.26,0.59,2.38,
1.251,-0.20,-1.49,1.06,-1.25,0.47,2.34,
1.253,-0.20,-1.49,1.06,-1.23,0.34,2.28,
1.256,0.17,-1.55,1.74,-1.23,0.34,2.28,
1.257,0.17,-1.55,1.74,-1.20,0.22,2.22,
1.257,0.17,-1.55,1.74,-1.14,0.09,2.15,
1.261,0.28,-1.54,2.30,-1.14,0.09,2.15,
1.262,0.28,-1.54,2.30,-1.08,-0.03,2.09,
1.262,0.28,-1.54,2.30,-1.00,-0.16,2.03,
1.265,0.32,-1.57,2.82,-1.00,-0.16,2.03,
1.266,0.32,-1.57,2.82,-0.92,-0.29,1.97,
1.267,0.32,-1.57,2.82,-0.83,-0.43,1.91,
1.271,0.34,-1.63,3.17,-0.83,-0.43,1.91,
1.272,0.34,-1.63,3.17,-0.74,-0.57,1.85,
1.272,0.34,-1.63,3.17,-0.64,-0.71,1.80,
1.276,0.27,-1.69,3.37,-0.64,-0.71,1.80,
1.276,0.27,-1.69,3.37,-0.54,-0.85,1.76,
1.278,0.27,-1.69,3.37,-0.44,-1.00,1.72,
1.28,0.11,-1.70,3.31,-0.44,-1.00,1.72,
1.281,0.11,-1.70,3.31,-0.35,-1.14,1.69,
1.284,0.11,-1.70,3.31,-0.25,-1.27,1.66,
1.285,-0.18,-1.66,3.03,-0.25,-1.27,1.66,
1.286,-0.18,-1.66,3.03,-0.17,-1.40,1.64,
1.287,-0.18,-1.66,3.03,-0.08,-1.52,1.62,
1.292,-0.63,-1.57,2.64,-0.08,-1.52,1.62,
1.292,-0.63,-1.57,2.64,-0.00,-1.62,1.61,
1.293,-0.63,-1.57,2.64,0.07,-1.73,1.61,
1.295,-1.22,-1.47,2.13,0.07,-1.73,1.61,
1.296,-1.22,-1.47,2.13,0.14,-1.82,1.62,
1.3,-1.22,-1.47,2.13,0.20,-1.91,1.64,
1.301,-1.88,-1.40,1.64,0.20,-1.91,1.64,
1.302,-1.88,-1.40,1.64,0.26,-1.99,1.68,
1.304,-1.88,-1.40,1.64,0.32,-2.08,1.72,
1.305,-2.48,-1.40,1.10,0.32,-2.08,1.72,
1.305,-2.48,-1.40,1.10,0.36,-2.15,1.77,
1.308,-2.48,-1.40,1.10,0.41,-2.22,1.82,
1.311,-2.98,-1.45,0.57,0.41,-2.22,1.82,
1.311,-2.98,-1.45,0.57,0.44,-2.29,1.89,
1.312,-2.98,-1.45,0.57,0.47,-2.35,1.95,
1.318,-3.35,-1.42,0.35,0.47,-2.35,1.95,
1.319,-3.35,-1.42,0.35,0.49,-2.44,2.03,
1.32,-3.35,-1.42,0.35,0.50,-2.56,2.10,
1.321,-3.81,-1.31,0.35,0.50,-2.56,2.10,
1.321,-3.81,-1.31,0.35,0.51,-2.66,2.18,
1.323,-3.81,-1.31,0.35,0.52,-2.74,2.27,
1.326,-3.89,-1.32,-0.43,0.52,-2.74,2.27,
1.327,-3.89,-1.32,-0.43,0.53,-2.81,2.35,
1.343,-3.89,-1.32,-0.43,0.55,-2.84,2.42,
1.344,-3.70,-1.60,-1.09,0.55,-2.84,2.42,
1.344,-3.70,-1.60,-1.09,0.57,-2.87,2.50,
1.345,-3.70,-1.60,-1.09,0.58,-2.89,2.59,
1.346,-3.81,-1.61,-1.35,0.58,-2.89,2.59,
1.347,-3.81,-1.61,-1.35,0.59,-2.92,2.67,
1.347,-3.81,-1.61,-1.35,0.60,-2.95,2.75,
1.348,-3.88,-1.66,-1.22,0.60,-2.95,2.75,
1.349,-3.88,-1.66,-1.22,0.61,-2.99,2.83,
1.349,-3.88,-1.66,-1.22,0.62,-3.05,2.91,
1.35,-3.88,-1.66,-1.22,0.62,-3.11,2.98,
1.354,-3.76,-1.82,-0.89,0.62,-3.11,2.98,
1.355,-3.76,-1.82,-0.89,0.63,-3.19,3.06,
1.355,-3.53,-2.04,-0.48,0.63,-3.19,3.06,
1.356,-3.53,-2.04,-0.48,0.64,-3.29,3.13,
1.357,-3.53,-2.04,-0.48,0.66,-3.39,3.20,
1.357,-3.19,-2.30,-0.15,0.66,-3.39,3.20,
1.358,-3.19,-2.30,-0.15,0.68,-3.49,3.27,
1.358,-3.19,-2.30,-0.15,0.70,-3.59,3.34,
1.361,-2.68,-2.53,0.00,0.70,-3.59,3.34,
1.363,-2.68,-2.53,0.00,0.73,-3.68,3.41,
1.363,-2.68,-2.53,0.00,0.76,-3.76,3.46,
1.366,-2.17,-2.67,0.02,0.76,-3.76,3.46,
1.367,-2.17,-2.67,0.02,0.80,-3.83,3.52,
1.368,-2.17,-2.67,0.02,0.84,-3.88,3.57,
1.37,-1.71,-2.85,0.04,0.84,-3.88,3.57,
1.37,-1.71,-2.85,0.04,0.88,-3.94,3.61,
1.374,-1.71,-2.85,0.04,0.92,-3.99,3.65,
1.375,-1.13,-2.97,-0.09,0.92,-3.99,3.65,
1.376,-1.13,-2.97,-0.09,0.96,-4.03,3.68,
1.379,-1.13,-2.97,-0.09,0.99,-4.07,3.71,
1.384,-0.63,-3.01,-0.27,0.99,-4.07,3.71,
1.385,-0.63,-3.01,-0.27,1.01,-4.11,3.73,
1.386,-0.63,-3.01,-0.27,1.04,-4.14,3.75,
1.386,-0.33,-2.93,-0.36,1.04,-4.14,3.75,
1.387,-0.33,-2.93,-0.36,1.05,-4.18,3.76,
1.388,-0.33,-2.93,-0.36,1.07,-4.21,3.78,
1.391,-0.17,-2.82,-0.41,1.07,-4.21,3.78,
1.392,-0.17,-2.82,-0.41,1.08,-4.24,3.80,
1.393,-0.17,-2.82,-0.41,1.09,-4.26,3.81,
1.396,-0.07,-2.69,-0.45,1.09,-4.26,3.81,
1.397,-0.07,-2.69,-0.45,1.11,-4.27,3.81,
1.401,-0.07,-2.69,-0.45,1.12,-4.28,3.82,
1.402,0.07,-2.55,-0.39,1.12,-4.28,3.82,
1.403,0.07,-2.55,-0.39,1.13,-4.29,3.82,
1.403,0.07,-2.55,-0.39,1.15,-4.29,3.82,
1.406,0.16,-2.39,-0.31,1.15,-4.29,3.82,
1.407,0.16,-2.39,-0.31,1.18,-4.28,3.81,
1.408,0.16,-2.39,-0.31,1.20,-4.27,3.80,
1.41,0.19,-2.24,-0.15,1.20,-4.27,3.80,
1.411,0.19,-2.24,-0.15,1.23,-4.25,3.79,
1.412,0.19,-2.24,-0.15,1.27,-4.23,3.79,
1.418,0.11,-2.16,0.09,1.27,-4.23,3.79,
1.419,0.11,-2.16,0.09,1.30,-4.21,3.79,
1.42,0.11,-2.16,0.09,1.35,-4.19,3.79,
1.422,-0.12,-2.23,0.37,1.35,-4.19,3.79,
1.423,-0.12,-2.23,0.37,1.40,-4.17,3.81,
1.424,-0.12,-2.23,0.37,1.45,-4.16,3.83,
1.427,-0.44,-2.32,0.67,1.45,-4.16,3.83,
1.428,-0.44,-2.32,0.67,1.50,-4.15,3.85,
1.429,-0.44,-2.32,0.67,1.55,-4.14,3.87,
1.434,-0.73,-2.42,0.87,1.55,-4.14,3.87,
1.435,-0.73,-2.42,0.87,1.60,-4.14,3.90,
1.436,-0.73,-2.42,0.87,1.65,-4.13,3.93,
1.437,-0.73,-2.42,0.87,1.70,-4.13,3.96,
1.437,-0.90,-2.51,0.86,1.70,-4.13,3.96,
1.439,-0.90,-2.51,0.86,1.74,-4.12,3.99,
1.44,-0.76,-2.55,0.65,1.74,-4.12,3.99,
1.441,-0.76,-2.55,0.65,1.78,-4.10,4.01,
1.442,-0.76,-2.55,0.65,1.81,-4.06,4.04,
1.446,-0.24,-2.56,0.29,1.81,-4.06,4.04,
1.447,-0.24,-2.56,0.29,1.84,-4.01,4.05,
1.448,-0.24,-2.56,0.29,1.87,-3.95,4.06,
1.451,0.46,-2.47,-0.15,1.87,-3.95,4.06,
1.452,0.46,-2.47,-0.15,1.89,-3.87,4.07,
1.453,0.46,-2.47,-0.15,1.90,-3.79,4.06,
1.458,1.08,-2.19,-0.55,1.90,-3.79,4.06,
1.459,1.08,-2.19,-0.55,1.91,-3.69,4.06,
1.459,1.08,-2.19,-0.55,1.92,-3.58,4.05,
1.461,1.50,-1.84,-0.86,1.92,-3.58,4.05,
1.462,1.50,-1.84,-0.86,1.92,-3.47,4.04,
1.466,1.50,-1.84,-0.86,1.91,-3.35,4.02,
1.468,1.76,-1.43,-1.02,1.91,-3.35,4.02,
1.469,1.76,-1.43,-1.02,1.90,-3.24,4.01,
1.469,1.76,-1.43,-1.02,1.89,-3.12,4.00,
1.47,1.97,-1.16,-1.05,1.89,-3.12,4.00,
1.471,1.97,-1.16,-1.05,1.87,-3.01,3.99,
1.473,1.97,-1.16,-1.05,1.85,-2.89,3.97,
1.475,2.28,-1.16,-1.21,1.85,-2.89,3.97,
1.477,2.28,-1.16,-1.21,1.83,-2.77,3.96,
1.477,2.28,-1.16,-1.21,1.81,-2.64,3.94,
1.482,2.70,-1.35,-1.65,1.81,-2.64,3.94,
1.484,2.70,-1.35,-1.65,1.78,-2.51,3.91,
1.484,2.70,-1.35,-1.65,1.74,-2.38,3.88,
1.485,2.70,-1.35,-1.65,1.70,-2.24,3.84,
1.486,3.21,-1.76,-1.91,1.70,-2.24,3.84,
1.49,3.21,-1.76,-1.91,1.66,-2.11,3.80,
1.491,3.69,-2.17,-2.02,1.66,-2.11,3.80,
1.491,3.69,-2.17,-2.02,1.62,-1.98,3.75,
1.492,3.69,-2.17,-2.02,1.58,-1.85,3.70,
1.505,3.99,-2.42,-2.04,1.58,-1.85,3.70,
1.506,3.99,-2.42,-2.04,1.53,-1.73,3.64,
1.506,3.99,-2.42,-2.04,1.48,-1.61,3.58,
1.507,4.16,-2.59,-2.01,1.48,-1.61,3.58,
1.507,4.16,-2.59,-2.01,1.43,-1.50,3.51,
1.508,4.16,-2.59,-2.01,1.38,-1.40,3.45,
1.509,4.22,-2.63,-1.74,1.38,-1.40,3.45,
1.509,4.22,-2.63,-1.74,1.34,-1.32,3.38,
1.51,4.22,-2.63,-1.74,1.30,-1.24,3.32,
1.51,4.32,-2.52,-1.21,1.30,-1.24,3.32,
1.511,4.32,-2.52,-1.21,1.26,-1.17,3.25,
1.514,4.32,-2.52,-1.21,1.23,-1.12,3.19,
1.515,4.44,-2.33,-0.53,1.23,-1.12,3.19,
1.518,4.44,-2.33,-0.53,1.20,-1.08,3.13,
1.518,4.44,-2.33,-0.53,1.18,-1.04,3.07,
1.522,4.56,-2.07,0.15,1.18,-1.04,3.07,
1.522,4.56,-2.07,0.15,1.17,-1.01,3.01,
1.523,4.56,-2.07,0.15,1.17,-0.98,2.96,
1.527,4.60,-1.78,0.65,1.17,-0.98,2.96,
1.528,4.60,-1.78,0.65,1.17,-0.96,2.90,
1.528,4.60,-1.78,0.65,1.18,-0.94,2.83,
1.53,4.58,-1.42,1.09,1.18,-0.94,2.83,
1.531,4.58,-1.42,1.09,1.20,-0.93,2.77,
1.536,4.58,-1.42,1.09,1.22,-0.91,2.71,
1.537,4.46,-1.07,1.43,1.22,-0.91,2.71,
1.537,4.46,-1.07,1.43,1.25,-0.89,2.66,
1.538,4.46,-1.07,1.43,1.29,-0.87,2.60,
1.541,4.26,-0.78,1.58,1.29,-0.87,2.60,
1.542,4.26,-0.78,1.58,1.32,-0.84,2.55,
1.544,4.26,-0.78,1.58,1.37,-0.81,2.50,
1.546,4.09,-0.59,1.67,1.37,-0.81,2.50,
1.547,4.09,-0.59,1.67,1.41,-0.78,2.46,
1.552,4.09,-0.59,1.67,1.46,-0.76,2.41,
1.554,3.92,-0.48,1.62,1.46,-0.76,2.41,
1.554,3.92,-0.48,1.62,1.50,-0.73,2.38,
1.555,3.92,-0.48,1.62,1.54,-0.70,2.34,
1.555,3.75,-0.43,1.47,1.54,-0.70,2.34,
1.556,3.75,-0.43,1.47,1.58,-0.68,2.30,
1.559,3.75,-0.43,1.47,1.61,-0.66,2.26,
1.562,3.60,-0.42,1.29,1.61,-0.66,2.26,
1.562,3.60,-0.42,1.29,1.63,-0.64,2.22,
1.563,3.60,-0.42,1.29,1.65,-0.63,2.19,
1.567,3.47,-0.39,1.14,1.65,-0.63,2.19,
1.568,3.47,-0.39,1.14,1.67,-0.62,2.15,
1.569,3.47,-0.39,1.14,1.69,-0.62,2.12,
1.571,3.38,-0.34,1.04,1.69,-0.62,2.12,
1.572,3.38,-0.34,1.04,1.70,-0.63,2.09,
1.573,3.38,-0.34,1.04,1.72,-0.64,2.06,
1.575,3.29,-0.29,0.89,1.72,-0.64,2.06,
1.576,3.29,-0.29,0.89,1.73,-0.66,2.03,
1.577,3.29,-0.29,0.89,1.74,-0.68,2.00,
1.582,3.19,-0.27,0.74,1.74,-0.68,2.00,
1.583,3.19,-0.27,0.74,1.75,-0.69,1.98,
1.584,3.19,-0.27,0.74,1.76,-0.71,1.95,
1.586,3.19,-0.27,0.74,1.77,-0.72,1.93,
1.587,3.15,-0.28,0.61,1.77,-0.72,1.93,
1.589,3.15,-0.28,0.61,1.78,-0.73,1.90,
1.591,3.21,-0.27,0.54,1.78,-0.73,1.90,
1.592,3.21,-0.27,0.54,1.79,-0.75,1.87,
1.593,3.21,-0.27,0.54,1.79,-0.76,1.83,
1.596,3.40,-0.29,0.46,1.79,-0.76,1.83,
1.597,3.40,-0.29,0.46,1.80,-0.78,1.79,
1.6,3.40,-0.29,0.46,1.81,-0.79,1.74,
1.601,3.64,-0.29,0.41,1.81,-0.79,1.74,
1.602,3.64,-0.29,0.41,1.83,-0.81,1.69,
1.604,3.64,-0.29,0.41,1.84,-0.83,1.63,
1.605,3.79,-0.21,0.39,1.84,-0.83,1.63,
1.606,3.79,-0.21,0.39,1.85,-0.85,1.57,
1.609,3.79,-0.21,0.39,1.86,-0.87,1.50,
1.611,3.76,-0.09,0.31,1.86,-0.87,1.50,
1.611,3.76,-0.09,0.31,1.87,-0.89,1.45,
1.614,3.76,-0.09,0.31,1.89,-0.91,1.39,
1.622,3.58,0.04,0.23,1.89,-0.91,1.39,
1.623,3.58,0.04,0.23,1.90,-0.94,1.33,
1.623,3.58,0.04,0.23,1.90,-0.96,1.29,
1.624,3.31,0.11,0.08,1.90,-0.96,1.29,
1.624,3.31,0.11,0.08,1.92,-0.98,1.24,
1.627,3.00,0.17,-0.19,1.92,-0.98,1.24,
1.628,3.00,0.17,-0.19,1.92,-1.00,1.20,
1.628,3.00,0.17,-0.19,1.93,-1.01,1.16,
1.629,3.00,0.17,-0.19,1.93,-1.02,1.12,
1.632,2.72,0.15,-0.52,1.93,-1.02,1.12,
1.633,2.72,0.15,-0.52,1.93,-1.03,1.08,
1.634,2.72,0.15,-0.52,1.92,-1.02,1.05,
1.636,2.44,0.11,-0.97,1.92,-1.02,1.05,
1.636,2.44,0.11,-0.97,1.91,-1.01,1.02,
1.638,2.44,0.11,-0.97,1.90,-1.00,0.99,
1.641,2.15,0.11,-1.44,1.90,-1.00,0.99,
1.642,2.15,0.11,-1.44,1.88,-0.98,0.97,
1.644,2.15,0.11,-1.44,1.86,-0.95,0.94,
1.647,1.89,0.08,-1.84,1.86,-0.95,0.94,
1.647,1.89,0.08,-1.84,1.83,-0.93,0.92,
1.648,1.89,0.08,-1.84,1.80,-0.90,0.91,
1.653,1.66,0.09,-2.13,1.80,-0.90,0.91,
1.654,1.66,0.09,-2.13,1.77,-0.87,0.90,
1.654,1.66,0.09,-2.13,1.73,-0.83,0.89,
1.657,1.59,0.11,-2.33,1.73,-0.83,0.89,
1.658,1.59,0.11,-2.33,1.68,-0.80,0.88,
1.659,1.59,0.11,-2.33,1.64,-0.77,0.87,
1.661,1.63,0.17,-2.52,1.64,-0.77,0.87,
1.676,1.63,0.17,-2.52,1.59,-0.74,0.85,
1.677,1.63,0.17,-2.52,1.54,-0.70,0.84,
1.678,1.68,0.23,-2.73,1.54,-0.70,0.84,
1.679,1.68,0.23,-2.73,1.49,-0.67,0.82,
1.679,1.68,0.23,-2.73,1.43,-0.62,0.81,
1.68,1.68,0.30,-2.98,1.43,-0.62,0.81,
1.681,1.68,0.30,-2.98,1.37,-0.57,0.79,
1.681,1.68,0.30,-2.98,1.31,-0.53,0.76,
1.682,1.68,0.36,-3.06,1.31,-0.53,0.76,
1.683,1.68,0.36,-3.06,1.26,-0.48,0.74,
1.684,1.68,0.36,-3.06,1.20,-0.44,0.72,
1.685,1.81,0.36,-2.90,1.20,-0.44,0.72,
1.686,1.81,0.36,-2.90,1.14,-0.40,0.69,
1.687,1.81,0.36,-2.90,1.08,-0.38,0.67,
1.687,2.04,0.26,-2.51,1.08,-0.38,0.67,
1.688,2.04,0.26,-2.51,1.03,-0.36,0.64,
1.688,2.04,0.26,-2.51,0.99,-0.36,0.61,
1.693,2.34,0.15,-1.96,0.99,-0.36,0.61,
1.694,2.34,0.15,-1.96,0.95,-0.37,0.58,
1.695,2.34,0.15,-1.96,0.91,-0.39,0.55,
1.697,2.59,0.07,-1.46,0.91,-0.39,0.55,
1.698,2.59,0.07,-1.46,0.89,-0.42,0.51,
1.7,2.59,0.07,-1.46,0.87,-0.45,0.47,
1.702,2.59,0.07,-1.46,0.86,-0.47,0.43,
1.702,2.68,0.05,-1.10,0.86,-0.47,0.43,
1.703,2.68,0.05,-1.10,0.85,-0.51,0.39,
1.707,2.68,0.04,-0.79,0.85,-0.51,0.39,
1.708,2.68,0.04,-0.79,0.84,-0.54,0.35,
1.708,2.68,0.04,-0.79,0.84,-0.58,0.32,
1.712,2.57,-0.04,-0.54,0.84,-0.58,0.32,
1.713,2.57,-0.04,-0.54,0.84,-0.62,0.29,
1.714,2.57,-0.04,-0.54,0.85,-0.65,0.26,
1.718,2.44,-0.18,-0.33,0.85,-0.65,0.26,
1.719,2.44,-0.18,-0.33,0.86,-0.69,0.24,
1.719,2.44,-0.18,-0.33,0.87,-0.73,0.22,
1.723,2.33,-0.32,-0.17,0.87,-0.73,0.22,
1.724,2.33,-0.32,-0.17,0.88,-0.76,0.21,
1.725,2.33,-0.32,-0.17,0.89,-0.80,0.19,
1.729,2.18,-0.43,-0.07,0.89,-0.80,0.19,
1.73,2.18,-0.43,-0.07,0.91,-0.83,0.18,
1.731,2.18,-0.43,-0.07,0.92,-0.87,0.17,
1.732,2.06,-0.56,-0.06,0.92,-0.87,0.17,
1.733,2.06,-0.56,-0.06,0.93,-0.90,0.16,
1.734,2.06,-0.56,-0.06,0.94,-0.93,0.15,
1.737,1.97,-0.78,-0.17,0.94,-0.93,0.15,
1.738,1.97,-0.78,-0.17,0.95,-0.94,0.14,
1.738,1.97,-0.78,-0.17,0.96,-0.95,0.12,
1.742,1.89,-0.99,-0.38,0.96,-0.95,0.12,
1.743,1.89,-0.99,-0.38,0.96,-0.95,0.11,
1.743,1.89,-0.99,-0.38,0.96,-0.94,0.09,
1.748,1.82,-1.12,-0.61,0.96,-0.94,0.09,
1.748,1.82,-1.12,-0.61,0.96,-0.93,0.07,
1.749,1.82,-1.12,-0.61,0.96,-0.91,0.05,
1.754,1.76,-1.19,-0.90,0.96,-0.91,0.05,
1.754,1.76,-1.19,-0.90,0.95,-0.88,0.03,
1.755,1.76,-1.19,-0.90,0.94,-0.85,-0.00,
1.756,1.73,-1.12,-1.21,0.94,-0.85,-0.00,
1.757,1.73,-1.12,-1.21,0.93,-0.81,-0.03,
1.76,1.73,-1.12,-1.21,0.91,-0.77,-0.06,
1.761,1.61,-0.89,-1.45,0.91,-0.77,-0.06,
1.762,1.61,-0.89,-1.45,0.89,-0.72,-0.08,
1.763,1.61,-0.89,-1.45,0.87,-0.68,-0.11,
1.768,1.37,-0.61,-1.72,0.87,-0.68,-0.11,
1.769,1.37,-0.61,-1.72,0.84,-0.63,-0.13,
1.769,1.37,-0.61,-1.72,0.81,-0.59,-0.14,
1.773,0.99,-0.39,-2.04,0.81,-0.59,-0.14,
1.774,0.99,-0.39,-2.04,0.78,-0.54,-0.16,
1.775,0.99,-0.39,-2.04,0.74,-0.49,-0.17,
1.78,0.65,-0.27,-2.32,0.74,-0.49,-0.17,
1.781,0.65,-0.27,-2.32,0.70,-0.44,-0.17,
1.781,0.65,-0.27,-2.32,0.65,-0.39,-0.18,
1.782,0.33,-0.20,-2.54,0.65,-0.39,-0.18,
1.782,0.33,-0.20,-2.54,0.60,-0.34,-0.18,
1.786,0.33,-0.20,-2.54,0.55,-0.28,-0.17,
1.787,0.02,-0.06,-2.65,0.55,-0.28,-0.17,
1.788,0.02,-0.06,-2.65,0.50,-0.23,-0.16,
1.788,0.02,-0.06,-2.65,0.45,-0.17,-0.14,
1.793,-0.33,0.14,-2.73,0.45,-0.17,-0.14,
1.793,-0.33,0.14,-2.73,0.40,-0.12,-0.11,
1.794,-0.33,0.14,-2.73,0.35,-0.06,-0.08,
1.797,-0.65,0.31,-2.88,0.35,-0.06,-0.08,
1.798,-0.65,0.31,-2.88,0.29,-0.01,-0.05,
1.799,-0.65,0.31,-2.88,0.23,0.04,-0.01,
1.803,-0.91,0.38,-3.11,0.23,0.04,-0.01,
1.805,-0.91,0.38,-3.11,0.17,0.09,0.03,
1.805,-0.91,0.38,-3.11,0.10,0.13,0.06,
1.806,-1.06,0.29,-3.32,0.10,0.13,0.06,
1.807,-1.06,0.29,-3.32,0.04,0.18,0.09,
1.809,-1.06,0.29,-3.32,-0.03,0.22,0.12,
1.812,-1.08,0.10,-3.28,-0.03,0.22,0.12,
1.813,-1.08,0.10,-3.28,-0.09,0.27,0.15,
1.813,-1.08,0.10,-3.28,-0.15,0.31,0.18,
1.822,-1.05,-0.17,-3.06,-0.15,0.31,0.18,
1.824,-1.05,-0.17,-3.06,-0.19,0.36,0.20,
1.824,-1.05,-0.17,-3.06,-0.23,0.41,0.22,
1.825,-1.04,-0.43,-2.70,-0.23,0.41,0.22,
1.826,-1.04,-0.43,-2.70,-0.26,0.47,0.23,
1.827,-0.96,-0.71,-2.23,-0.26,0.47,0.23,
1.828,-0.96,-0.71,-2.23,-0.28,0.52,0.24,
1.828,-0.96,-0.71,-2.23,-0.29,0.56,0.24,
1.842,-0.96,-0.71,-2.23,-0.30,0.58,0.23,
1.843,-0.85,-1.00,-1.65,-0.30,0.58,0.23,
1.843,-0.85,-1.00,-1.65,-0.30,0.59,0.21,
1.844,-0.85,-1.00,-1.65,-0.30,0.58,0.19,
1.844,-0.87,-1.22,-1.04,-0.30,0.58,0.19,
1.844,-0.87,-1.22,-1.04,-0.30,0.55,0.16,
1.845,-0.87,-1.22,-1.04,-0.29,0.51,0.12,
1.845,-0.98,-1.27,-0.45,-0.29,0.51,0.12,
1.845,-0.98,-1.27,-0.45,-0.27,0.45,0.08,
1.846,-0.98,-1.27,-0.45,-0.26,0.39,0.05,
1.846,-1.24,-1.10,0.00,-0.26,0.39,0.05,
1.846,-1.24,-1.10,0.00,-0.24,0.31,0.02,
1.849,-1.24,-1.10,0.00,-0.22,0.23,-0.00,
1.851,-1.65,-0.71,0.28,-0.22,0.23,-0.00,
1.852,-1.65,-0.71,0.28,-0.20,0.15,-0.02,
1.854,-1.65,-0.71,0.28,-0.18,0.06,-0.02,
1.857,-1.97,-0.32,0.37,-0.18,0.06,-0.02,
1.857,-1.97,-0.32,0.37,-0.16,-0.03,-0.01,
1.859,-1.97,-0.32,0.37,-0.14,-0.11,-0.01,
1.861,-2.13,-0.05,0.35,-0.14,-0.11,-0.01,
1.862,-2.13,-0.05,0.35,-0.11,-0.19,0.01,
1.867,-2.13,-0.05,0.35,-0.09,-0.26,0.03,
1.868,-2.17,0.02,0.27,-0.09,-0.26,0.03,
1.868,-2.17,0.02,0.27,-0.07,-0.33,0.04,
1.869,-2.17,0.02,0.27,-0.04,-0.37,0.06,
1.873,-2.06,-0.13,0.08,-0.04,-0.37,0.06,
1.873,-2.06,-0.13,0.08,-0.02,-0.40,0.07,
1.873,-2.06,-0.13,0.08,0.00,-0.42,0.09,
1.878,-1.92,-0.40,-0.18,0.00,-0.42,0.09,
1.878,-1.92,-0.40,-0.18,0.03,-0.42,0.11,
1.878,-1.92,-0.40,-0.18,0.04,-0.40,0.12,
1.884,-1.89,-0.68,-0.38,0.04,-0.40,0.12,
1.885,-1.89,-0.68,-0.38,0.05,-0.38,0.14,
1.886,-1.89,-0.68,-0.38,0.05,-0.34,0.16,
1.889,-1.96,-0.81,-0.44,0.05,-0.34,0.16,
1.89,-1.96,-0.81,-0.44,0.05,-0.30,0.19,
1.89,-1.96,-0.81,-0.44,0.05,-0.26,0.21,
1.892,-2.14,-0.84,-0.40,0.05,-0.26,0.21,
1.893,-2.14,-0.84,-0.40,0.04,-0.22,0.24,
1.895,-2.14,-0.84,-0.40,0.03,-0.18,0.27,
1.897,-2.32,-0.83,-0.31,0.03,-0.18,0.27,
1.898,-2.32,-0.83,-0.31,0.02,-0.13,0.31,
1.898,-2.32,-0.83,-0.31,0.00,-0.09,0.34,
1.903,-2.45,-0.81,-0.15,0.00,-0.09,0.34,
1.904,-2.45,-0.81,-0.15,-0.01,-0.06,0.37,
1.905,-2.45,-0.81,-0.15,-0.03,-0.03,0.41,
1.908,-2.43,-0.79,0.18,-0.03,-0.03,0.41,
1.908,-2.43,-0.79,0.18,-0.05,-0.01,0.44,
1.909,-2.43,-0.79,0.18,-0.06,-0.00,0.48,
1.911,-2.20,-0.71,0.64,-0.06,-0.00,0.48,
1.912,-2.20,-0.71,0.64,-0.07,-0.00,0.51,
1.918,-2.20,-0.71,0.64,-0.08,-0.02,0.53,
1.919,-1.65,-0.59,0.94,-0.08,-0.02,0.53,
1.92,-1.65,-0.59,0.94,-0.09,-0.04,0.56,
1.92,-1.65,-0.59,0.94,-0.09,-0.06,0.57,
1.923,-1.09,-0.40,1.15,-0.09,-0.06,0.57,
1.924,-1.09,-0.40,1.15,-0.09,-0.08,0.58,
1.924,-1.09,-0.40,1.15,-0.08,-0.10,0.59,
1.928,-0.66,-0.19,1.16,-0.08,-0.10,0.59,
1.929,-0.66,-0.19,1.16,-0.07,-0.12,0.60,
1.93,-0.66,-0.19,1.16,-0.04,-0.12,0.60,
1.933,-0.25,-0.03,0.90,-0.04,-0.12,0.60,
1.934,-0.25,-0.03,0.90,-0.02,-0.11,0.60,
1.935,-0.25,-0.03,0.90,0.00,-0.09,0.59,
1.938,0.25,0.05,0.42,0.00,-0.09,0.59,
1.938,0.25,0.05,0.42,0.03,-0.05,0.57,
1.939,0.25,0.05,0.42,0.05,-0.01,0.55,
1.943,0.80,0.09,-0.26,0.05,-0.01,0.55,
1.944,0.80,0.09,-0.26,0.06,0.04,0.52,
1.945,0.80,0.09,-0.26,0.07,0.10,0.49,
1.948,1.21,0.23,-0.85,0.07,0.10,0.49,
1.948,1.21,0.23,-0.85,0.07,0.16,0.46,
1.949,1.21,0.23,-0.85,0.07,0.23,0.43,
1.953,1.46,0.44,-1.24,0.07,0.23,0.43,
1.954,1.46,0.44,-1.24,0.05,0.29,0.40,
1.954,1.46,0.44,-1.24,0.03,0.35,0.37,
1.958,1.62,0.67,-1.55,0.03,0.35,0.37,
1.959,1.62,0.67,-1.55,0.01,0.41,0.34,
1.96,1.62,0.67,-1.55,-0.02,0.47,0.32,
1.963,1.67,0.97,-1.75,-0.02,0.47,0.32,
1.964,1.67,0.97,-1.75,-0.06,0.52,0.29,
1.964,1.67,0.97,-1.75,-0.09,0.57,0.27,
1.969,1.65,1.19,-1.77,-0.09,0.57,0.27,
1.97,1.65,1.19,-1.77,-0.13,0.62,0.26,
1.97,1.65,1.19,-1.77,-0.16,0.66,0.24,
1.972,1.77,1.26,-1.65,-0.16,0.66,0.24,
1.973,1.77,1.26,-1.65,-0.19,0.69,0.22,
1.974,1.77,1.26,-1.65,-0.22,0.72,0.20,
1.978,1.67,1.14,-1.41,-0.22,0.72,0.20,
1.979,1.67,1.14,-1.41,-0.24,0.75,0.18,
1.979,1.67,1.14,-1.41,-0.26,0.78,0.16,
1.983,1.45,0.94,-0.90,-0.26,0.78,0.16,
1.985,1.45,0.94,-0.90,-0.27,0.79,0.14,
1.985,1.45,0.94,-0.90,-0.28,0.78,0.12,
1.987,1.25,0.71,-0.07,-0.28,0.78,0.12,
1.989,1.25,0.71,-0.07,-0.28,0.76,0.10,
1.99,1.25,0.71,-0.07,-0.27,0.72,0.08,
1.992,1.01,0.46,0.93,-0.27,0.72,0.08,
1.992,1.01,0.46,0.93,-0.26,0.67,0.06,
1.995,1.01,0.46,0.93,-0.24,0.59,0.04,
2.012,0.94,0.30,1.86,-0.24,0.59,0.04,
2.013,0.94,0.30,1.86,-0.22,0.50,0.02,
2.013,0.94,0.30,1.86,-0.19,0.40,0.00,
2.014,1.00,0.17,2.54,-0.19,0.40,0.00,
2.015,1.00,0.17,2.54,-0.14,0.30,-0.02,
2.015,1.00,0.17,2.54,-0.10,0.20,-0.03,
2.016,0.95,0.14,2.90,-0.10,0.20,-0.03,
2.016,0.95,0.14,2.90,-0.03,0.11,-0.05,
2.017,0.95,0.14,2.90,0.04,0.04,-0.06,
2.017,0.61,0.15,2.76,0.04,0.04,-0.06,
2.018,0.61,0.15,2.76,0.11,-0.01,-0.07,
2.018,0.61,0.15,2.76,0.17,-0.05,-0.07,
2.018,0.04,0.12,2.21,0.17,-0.05,-0.07,
2.019,0.04,0.12,2.21,0.24,-0.07,-0.07,
2.019,0.04,0.12,2.21,0.31,-0.07,-0.05,
2.022,-0.52,0.05,1.42,0.31,-0.07,-0.05,
2.022,-0.52,0.05,1.42,0.36,-0.06,-0.03,
2.025,-0.52,0.05,1.42,0.40,-0.04,-0.00,
2.029,-0.88,-0.01,0.63,0.40,-0.04,-0.00,
2.03,-0.88,-0.01,0.63,0.42,-0.02,0.03,
2.03,-0.88,-0.01,0.63,0.44,0.01,0.07,
2.036,-1.02,0.06,0.08,0.44,0.01,0.07,
2.037,-1.02,0.06,0.08,0.44,0.03,0.10,
2.037,-1.02,0.06,0.08,0.44,0.06,0.14,
2.04,-1.06,0.27,-0.09,0.44,0.06,0.14,
2.043,-1.06,0.27,-0.09,0.43,0.09,0.18,
2.044,-1.06,0.27,-0.09,0.43,0.12,0.22,
2.044,-1.13,0.51,0.03,0.43,0.12,0.22,
2.044,-1.13,0.51,0.03,0.42,0.15,0.25,
2.046,-1.13,0.51,0.03,0.42,0.18,0.29,
2.047,-1.13,0.49,-0.15,0.42,0.18,0.29,
2.047,-1.13,0.49,-0.15,0.40,0.19,0.32,
2.05,-1.13,0.49,-0.15,0.36,0.17,0.35,
2.054,-0.88,0.28,-0.97,0.36,0.17,0.35,
2.055,-0.88,0.28,-0.97,0.30,0.15,0.37,
2.056,-0.88,0.28,-0.97,0.25,0.13,0.39,
2.059,-0.75,0.38,-1.55,0.25,0.13,0.39,
2.059,-0.75,0.38,-1.55,0.19,0.11,0.40,
2.059,-0.75,0.38,-1.55,0.13,0.09,0.40,
2.063,-0.74,0.67,-1.78,0.13,0.09,0.40,
2.063,-0.74,0.67,-1.78,0.08,0.08,0.41,
2.067,-0.74,0.67,-1.78,0.03,0.06,0.41,
2.068,-0.74,0.94,-1.63,0.03,0.06,0.41,
2.068,-0.74,0.94,-1.63,0.00,0.05,0.42,
2.072,-0.74,0.94,-1.63,-0.03,0.02,0.42,
2.074,-0.81,1.11,-1.20,-0.03,0.02,0.42,
2.074,-0.81,1.11,-1.20,-0.04,-0.00,0.43,
2.074,-0.81,1.11,-1.20,-0.05,-0.04,0.44,
2.079,-0.91,1.14,-0.67,-0.05,-0.04,0.44,
2.08,-0.91,1.14,-0.67,-0.05,-0.07,0.44,
2.08,-0.91,1.14,-0.67,-0.04,-0.11,0.45,
2.084,-1.02,0.99,-0.26,-0.04,-0.11,0.45,
2.085,-1.02,0.99,-0.26,-0.03,-0.15,0.46,
2.085,-1.02,0.99,-0.26,-0.02,-0.20,0.47,
2.089,-1.21,0.78,-0.09,-0.02,-0.20,0.47,
2.09,-1.21,0.78,-0.09,-0.01,-0.24,0.48,
2.091,-1.21,0.78,-0.09,-0.01,-0.29,0.48,
2.095,-1.28,0.63,-0.03,-0.01,-0.29,0.48,
2.095,-1.28,0.63,-0.03,-0.01,-0.34,0.49,
2.096,-1.28,0.63,-0.03,-0.01,-0.39,0.50,
2.1,-1.45,0.58,0.04,-0.01,-0.39,0.50,
2.101,-1.45,0.58,0.04,-0.01,-0.42,0.52,
2.102,-1.45,0.58,0.04,-0.02,-0.46,0.53,
2.102,-1.65,0.62,0.05,-0.02,-0.46,0.53,
2.103,-1.65,0.62,0.05,-0.03,-0.49,0.55,
2.106,-1.65,0.62,0.05,-0.05,-0.51,0.58,
2.109,-2.11,0.66,0.02,-0.05,-0.51,0.58,
2.109,-2.11,0.66,0.02,-0.05,-0.52,0.61,
2.11,-2.11,0.66,0.02,-0.06,-0.50,0.65,
2.112,-3.60,0.78,0.33,-0.06,-0.50,0.65,
2.113,-3.60,0.78,0.33,-0.03,-0.41,0.73,
2.119,-3.60,0.78,0.33,0.01,-0.31,0.81,
2.12,-2.69,-0.06,0.46,0.01,-0.31,0.81,
2.121,-2.69,-0.06,0.46,0.03,-0.24,0.84,
2.121,-2.69,-0.06,0.46,0.03,-0.17,0.84,
2.122,-0.69,-0.99,-0.14,0.03,-0.17,0.84,
2.122,-0.69,-0.99,-0.14,0.01,-0.10,0.81,
2.125,-0.69,-0.99,-0.14,-0.01,-0.03,0.77,
2.127,-0.13,-1.08,-0.46,-0.01,-0.03,0.77,
2.127,-0.13,-1.08,-0.46,-0.04,0.05,0.73,
2.131,-0.13,-1.08,-0.46,-0.07,0.13,0.68,
2.135,0.02,-0.66,-0.68,-0.07,0.13,0.68,
2.136,0.02,-0.66,-0.68,-0.10,0.22,0.65,
2.137,0.02,-0.66,-0.68,-0.14,0.30,0.62,
2.137,0.02,-0.66,-0.68,-0.17,0.39,0.60,
2.138,0.31,-0.15,-0.76,-0.17,0.39,0.60,
2.141,0.31,-0.15,-0.76,-0.20,0.46,0.57,
2.142,0.41,0.33,-0.76,-0.20,0.46,0.57,
2.143,0.41,0.33,-0.76,-0.23,0.53,0.56,
2.145,0.41,0.33,-0.76,-0.25,0.58,0.54,
2.148,0.06,0.68,-0.58,-0.25,0.58,0.54,
2.148,0.06,0.68,-0.58,-0.28,0.61,0.54,
2.151,0.06,0.68,-0.58,-0.29,0.66,0.54,
2.152,-0.61,0.75,-0.22,-0.29,0.66,0.54,
2.153,-0.61,0.75,-0.22,-0.30,0.71,0.55,
2.157,-0.61,0.75,-0.22,-0.30,0.74,0.54,
2.157,0.08,0.20,-0.34,-0.30,0.74,0.54,
2.158,0.08,0.20,-0.34,-0.32,0.75,0.53,
2.161,0.08,0.20,-0.34,-0.33,0.76,0.51,
2.162,-0.14,-0.06,-0.56,-0.33,0.76,0.51,
2.18,-0.14,-0.06,-0.56,-0.35,0.75,0.51,
2.181,-0.14,-0.06,-0.56,-0.36,0.74,0.51,
2.181,-0.74,-0.17,-0.44,-0.36,0.74,0.51,
2.184,-0.74,-0.17,-0.44,-0.37,0.71,0.52,
2.185,-0.74,-0.17,-0.44,-0.37,0.66,0.54,
2.185,-1.01,-0.15,-0.18,-0.37,0.66,0.54,
2.185,-1.01,-0.15,-0.18,-0.37,0.60,0.56,
2.186,-1.01,-0.15,-0.18,-0.38,0.52,0.58,
2.186,-0.72,-0.24,0.20,-0.38,0.52,0.58,
2.187,-0.72,-0.24,0.20,-0.37,0.41,0.61,
2.187,-0.72,-0.24,0.20,-0.37,0.29,0.63,
2.187,-0.49,-0.23,0.54,-0.37,0.29,0.63,
2.188,-0.49,-0.23,0.54,-0.36,0.16,0.65,
2.188,-0.49,-0.23,0.54,-0.36,0.02,0.68,
2.188,-0.61,0.16,0.65,-0.36,0.02,0.68,
2.189,-0.61,0.16,0.65,-0.36,-0.14,0.71,
2.195,-0.61,0.16,0.65,-0.35,-0.30,0.75,
2.196,-0.12,-0.05,0.67,-0.35,-0.30,0.75,
2.197,-0.12,-0.05,0.67,-0.34,-0.45,0.77,
2.197,-0.12,-0.05,0.67,-0.28,-0.52,0.78,
2.198,1.59,-0.95,2.12,-0.28,-0.52,0.78,
2.198,1.59,-0.95,2.12,-0.15,-0.50,0.76,
2.2,1.59,-0.95,2.12,0.01,-0.48,0.73,
2.203,1.59,-0.95,2.12,0.15,-0.50,0.70,
2.203,2.71,-1.37,3.70,0.15,-0.50,0.70,
2.205,2.71,-1.37,3.70,0.25,-0.56,0.66,
2.208,3.61,-1.67,3.07,0.25,-0.56,0.66,
2.208,3.61,-1.67,3.07,0.33,-0.62,0.62,
2.209,3.61,-1.67,3.07,0.39,-0.66,0.57,
2.213,3.20,-1.30,2.24,0.39,-0.66,0.57,
2.213,3.20,-1.30,2.24,0.44,-0.68,0.56,
2.216,3.20,-1.30,2.24,0.46,-0.69,0.57,
2.218,1.44,-0.35,0.76,0.46,-0.69,0.57,
2.218,1.44,-0.35,0.76,0.46,-0.68,0.62,
2.221,1.44,-0.35,0.76,0.42,-0.66,0.68,
2.223,0.21,0.12,-0.92,0.42,-0.66,0.68,
2.223,0.21,0.12,-0.92,0.37,-0.63,0.76,
2.226,0.21,0.12,-0.92,0.29,-0.59,0.84,
2.227,-0.08,0.03,-2.13,0.29,-0.59,0.84,
2.227,-0.08,0.03,-2.13,0.21,-0.53,0.91,
2.229,-0.08,0.03,-2.13,0.11,-0.47,0.95,
2.236,1.03,-0.67,-3.18,0.11,-0.47,0.95,
2.237,1.03,-0.67,-3.18,0.01,-0.41,0.97,
2.237,1.03,-0.67,-3.18,-0.09,-0.32,0.97,
2.237,1.88,-0.91,-3.25,-0.09,-0.32,0.97,
2.238,1.88,-0.91,-3.25,-0.16,-0.22,0.96,
2.244,1.72,-0.43,-2.21,-0.16,-0.22,0.96,
2.245,1.72,-0.43,-2.21,-0.21,-0.11,0.95,
2.247,1.72,-0.43,-2.21,-0.24,0.00,0.95,
2.248,1.72,-0.43,-2.21,-0.24,0.11,0.99,
2.248,0.32,0.27,-0.77,-0.24,0.11,0.99,
2.252,0.32,0.27,-0.77,-0.23,0.18,1.05,
2.253,0.32,0.27,-0.77,-0.22,0.21,1.10,
2.254,0.10,0.36,0.33,-0.22,0.21,1.10,
2.254,0.10,0.36,0.33,-0.23,0.21,1.15,
2.255,0.10,0.36,0.33,-0.23,0.16,1.18,
2.259,0.55,0.28,1.04,-0.23,0.16,1.18,
2.26,0.55,0.28,1.04,-0.23,0.10,1.20,
2.26,0.55,0.28,1.04,-0.24,0.03,1.20,
2.263,0.70,0.20,1.52,-0.24,0.03,1.20,
2.264,0.70,0.20,1.52,-0.22,-0.05,1.20,
2.268,0.70,0.20,1.52,-0.21,-0.13,1.20,
2.269,0.87,-0.02,1.65,-0.21,-0.13,1.20,
2.269,0.87,-0.02,1.65,-0.18,-0.20,1.18,
2.27,0.87,-0.02,1.65,-0.15,-0.27,1.15,
2.272,0.86,0.06,1.14,-0.15,-0.27,1.15,
2.273,0.86,0.06,1.14,-0.13,-0.33,1.13,
2.275,0.86,0.06,1.14,-0.12,-0.38,1.11,
2.278,0.58,0.37,0.46,-0.12,-0.38,1.11,
2.279,0.58,0.37,0.46,-0.10,-0.42,1.08,
2.28,0.58,0.37,0.46,-0.09,-0.45,1.07,
2.283,0.12,0.45,-0.08,-0.09,-0.45,1.07,
2.286,0.12,0.45,-0.08,-0.09,-0.46,1.06,
2.286,0.12,0.45,-0.08,-0.09,-0.47,1.05,
2.288,-0.04,0.17,-0.49,-0.09,-0.47,1.05,
2.288,-0.04,0.17,-0.49,-0.10,-0.46,1.04,
2.29,-0.04,0.17,-0.49,-0.11,-0.45,1.04,
2.292,-0.20,0.40,-0.85,-0.11,-0.45,1.04,
2.293,-0.20,0.40,-0.85,-0.12,-0.43,1.03,
2.297,-0.20,0.40,-0.85,-0.14,-0.41,1.02,
2.298,-0.00,0.48,-1.01,-0.14,-0.41,1.02,
2.298,-0.00,0.48,-1.01,-0.15,-0.37,1.01,
2.306,-0.00,0.48,-1.01,-0.16,-0.34,1.00,
2.308,-0.50,0.73,-1.02,-0.16,-0.34,1.00,
2.308,-0.50,0.73,-1.02,-0.17,-0.30,1.00,
2.309,-0.50,0.73,-1.02,-0.18,-0.26,1.01,
2.309,-1.38,1.27,-1.23,-0.18,-0.26,1.01,
2.31,-1.38,1.27,-1.23,-0.19,-0.21,1.03,
2.31,-1.38,1.27,-1.23,-0.20,-0.16,1.05,
2.314,-2.18,1.44,-1.33,-0.20,-0.16,1.05,
2.315,-2.18,1.44,-1.33,-0.22,-0.11,1.07,
2.315,-2.18,1.44,-1.33,-0.23,-0.06,1.10,
2.32,-3.04,1.24,-0.98,-0.23,-0.06,1.10,
2.321,-3.04,1.24,-0.98,-0.24,-0.02,1.12,
2.321,-3.04,1.24,-0.98,-0.25,0.01,1.16,
2.326,-3.82,1.00,-0.33,-0.25,0.01,1.16,
2.326,-3.82,1.00,-0.33,-0.26,0.03,1.19,
2.327,-3.82,1.00,-0.33,-0.27,0.04,1.22,
2.329,-3.54,0.30,0.13,-0.27,0.04,1.22,
2.33,-3.54,0.30,0.13,-0.28,0.01,1.23,
2.345,-3.54,0.30,0.13,-0.30,-0.02,1.22,
2.345,-2.09,-0.09,0.36,-0.30,-0.02,1.22,
2.346,-2.09,-0.09,0.36,-0.31,-0.05,1.19,
2.347,-2.09,-0.09,0.36,-0.32,-0.09,1.15,
2.348,-1.08,0.41,0.58,-0.32,-0.09,1.15,
2.348,-1.08,0.41,0.58,-0.33,-0.12,1.11,
2.349,-1.08,0.41,0.58,-0.32,-0.13,1.09,
2.35,-1.37,1.38,0.53,-0.32,-0.13,1.09,
2.35,-1.37,1.38,0.53,-0.31,-0.13,1.09,
2.351,-1.37,1.38,0.53,-0.30,-0.11,1.07,
2.352,0.53,0.53,-0.21,-0.30,-0.11,1.07,
2.352,0.53,0.53,-0.21,-0.29,-0.05,1.03,
2.353,0.53,0.53,-0.21,-0.28,0.02,0.99,
2.354,1.33,0.04,-0.70,-0.28,0.02,0.99,
2.355,1.33,0.04,-0.70,-0.28,0.11,0.95,
2.357,1.33,0.04,-0.70,-0.29,0.19,0.92,
2.361,1.78,0.32,-1.51,-0.29,0.19,0.92,
2.362,1.78,0.32,-1.51,-0.32,0.27,0.89,
2.362,1.78,0.32,-1.51,-0.35,0.36,0.87,
2.363,2.26,0.90,-2.22,-0.35,0.36,0.87,
2.363,2.26,0.90,-2.22,-0.38,0.45,0.85,
2.367,2.26,0.90,-2.22,-0.42,0.54,0.83,
2.368,2.50,1.20,-2.83,-0.42,0.54,0.83,
2.368,2.50,1.20,-2.83,-0.46,0.65,0.81,
2.37,2.50,1.20,-2.83,-0.49,0.75,0.79,
2.374,2.73,0.88,-3.34,-0.49,0.75,0.79,
2.374,2.73,0.88,-3.34,-0.53,0.86,0.78,
2.376,2.73,0.88,-3.34,-0.56,0.96,0.77,
2.378,2.08,0.95,-3.65,-0.56,0.96,0.77,
2.378,2.08,0.95,-3.65,-0.59,1.07,0.77,
2.38,2.08,0.95,-3.65,-0.62,1.17,0.78,
2.384,1.69,1.40,-3.67,-0.62,1.17,0.78,
2.385,1.69,1.40,-3.67,-0.64,1.26,0.79,
2.385,1.69,1.40,-3.67,-0.65,1.33,0.80,
2.39,1.60,1.99,-2.92,-0.65,1.33,0.80,
2.39,1.60,1.99,-2.92,-0.65,1.38,0.79,
2.391,1.60,1.99,-2.92,-0.61,1.36,0.78,
2.394,2.56,0.67,1.39,-0.61,1.36,0.78,
2.394,2.56,0.67,1.39,-0.52,1.22,0.74,
2.395,2.56,0.67,1.39,-0.38,0.98,0.67,
2.398,3.11,-1.14,6.24,-0.38,0.98,0.67,
2.399,3.11,-1.14,6.24,-0.23,0.68,0.58,
2.402,3.11,-1.14,6.24,-0.08,0.39,0.50,
2.403,1.51,-0.16,4.74,-0.08,0.39,0.50,
2.404,1.51,-0.16,4.74,0.03,0.16,0.45,
2.406,1.51,-0.16,4.74,0.09,-0.01,0.43,
2.409,0.19,0.22,0.60,0.09,-0.01,0.43,
2.41,0.19,0.22,0.60,0.12,-0.12,0.44,
2.412,0.19,0.22,0.60,0.13,-0.19,0.45,
2.419,-0.09,0.38,-0.68,0.13,-0.19,0.45,
2.42,-0.09,0.38,-0.68,0.14,-0.24,0.45,
2.42,-0.09,0.38,-0.68,0.14,-0.28,0.44,
2.421,0.34,0.19,3.17,0.14,-0.28,0.44,
2.421,0.34,0.19,3.17,0.25,-0.42,0.43,
2.422,0.34,0.19,3.17,0.40,-0.65,0.43,
2.425,-0.26,-1.40,5.18,0.40,-0.65,0.43,
2.426,-0.26,-1.40,5.18,0.46,-0.78,0.45,
2.427,-0.26,-1.40,5.18,0.42,-0.77,0.46,
2.429,-0.32,-0.96,-2.74,0.42,-0.77,0.46,
2.432,-0.32,-0.96,-2.74,0.33,-0.69,0.48,
2.433,-0.32,-0.96,-2.74,0.23,-0.56,0.49,
2.433,-0.60,-0.04,-2.51,0.23,-0.56,0.49,
2.434,-0.60,-0.04,-2.51,0.16,-0.47,0.51,
2.436,-0.60,-0.04,-2.51,0.14,-0.46,0.54,
2.439,-1.39,-1.42,2.53,0.14,-0.46,0.54,
2.44,-1.39,-1.42,2.53,0.14,-0.51,0.58,
2.44,-1.39,-1.42,2.53,0.12,-0.59,0.62,
2.443,-1.00,-1.66,1.83,0.12,-0.59,0.62,
2.443,-1.00,-1.66,1.83,0.06,-0.65,0.65,
2.447,-1.00,-1.66,1.83,-0.03,-0.66,0.66,
2.452,-0.23,-0.27,-1.27,-0.03,-0.66,0.66,
2.453,-0.23,-0.27,-1.27,-0.12,-0.60,0.67,
2.454,-0.23,-0.27,-1.27,-0.22,-0.53,0.68,
2.454,0.69,0.89,-1.99,-0.22,-0.53,0.68,
2.455,0.69,0.89,-1.99,-0.31,-0.45,0.68,
2.455,0.69,0.89,-1.99,-0.38,-0.39,0.68,
2.458,1.43,0.78,-0.90,-0.38,-0.39,0.68,
2.458,1.43,0.78,-0.90,-0.43,-0.35,0.67,
2.46,1.43,0.78,-0.90,-0.48,-0.32,0.68,
2.465,1.44,0.35,-0.68,-0.48,-0.32,0.68,
2.465,1.44,0.35,-0.68,-0.54,-0.30,0.67,
2.466,1.44,0.35,-0.68,-0.58,-0.28,0.66,
2.47,1.42,0.94,-0.45,-0.58,-0.28,0.66,
2.471,1.42,0.94,-0.45,-0.62,-0.26,0.64,
2.472,1.42,0.94,-0.45,-0.64,-0.26,0.62,
2.473,1.36,1.70,-0.24,-0.64,-0.26,0.62,
2.473,1.36,1.70,-0.24,-0.66,-0.26,0.61,
2.477,1.36,1.70,-0.24,-0.68,-0.27,0.60,
2.479,1.15,1.31,-0.56,-0.68,-0.27,0.60,
2.48,1.15,1.31,-0.56,-0.69,-0.28,0.59,
2.48,1.15,1.31,-0.56,-0.71,-0.28,0.57,
2.486,1.08,1.69,-0.57,-0.71,-0.28,0.57,
2.487,1.08,1.69,-0.57,-0.73,-0.29,0.55,
2.487,1.08,1.69,-0.57,-0.74,-0.31,0.52,
2.49,1.41,2.75,-0.53,-0.74,-0.31,0.52,
2.491,1.41,2.75,-0.53,-0.75,-0.32,0.48,
2.492,1.41,2.75,-0.53,-0.75,-0.32,0.45,
2.495,1.66,2.24,-1.15,-0.75,-0.32,0.45,
2.496,1.66,2.24,-1.15,-0.77,-0.33,0.41,
2.496,1.66,2.24,-1.15,-0.79,-0.32,0.38,
2.509,1.56,2.93,-1.39,-0.79,-0.32,0.38,
2.51,1.56,2.93,-1.39,-0.81,-0.31,0.34,
2.51,1.56,2.93,-1.39,-0.83,-0.32,0.31,
2.511,1.29,4.63,-1.25,-0.83,-0.32,0.31,
2.511,1.29,4.63,-1.25,-0.84,-0.33,0.28,
2.512,1.29,4.63,-1.25,-0.85,-0.33,0.27,
2.512,1.64,3.72,-1.10,-0.85,-0.33,0.27,
2.513,1.64,3.72,-1.10,-0.86,-0.35,0.25,
2.513,1.64,3.72,-1.10,-0.85,-0.38,0.23,
2.514,1.52,1.98,0.93,-0.85,-0.38,0.23,
2.517,1.52,1.98,0.93,-0.81,-0.42,0.20,
2.518,1.52,1.98,0.93,-0.78,-0.44,0.19,
2.519,0.02,4.69,-1.00,-0.78,-0.44,0.19,
2.52,0.02,4.69,-1.00,-0.80,-0.38,0.20,
2.52,0.02,4.69,-1.00,-0.84,-0.31,0.21,
2.524,-0.59,6.74,-0.66,-0.84,-0.31,0.21,
2.524,-0.59,6.74,-0.66,-0.86,-0.31,0.21,
2.525,-0.59,6.74,-0.66,-0.79,-0.47,0.23,
2.53,-2.09,3.68,8.74,-0.79,-0.47,0.23,
2.53,-2.09,3.68,8.74,-0.65,-0.83,0.26,
2.531,-2.09,3.68,8.74,-0.47,-1.27,0.28,
2.534,-1.47,-1.52,10.73,-0.47,-1.27,0.28,
2.535,-1.47,-1.52,10.73,-0.28,-1.58,0.26,
2.535,-1.47,-1.52,10.73,-0.16,-1.65,0.22,
2.543,1.67,0.40,-1.36,-0.16,-1.65,0.22,
2.544,1.67,0.40,-1.36,-0.15,-1.51,0.14,
2.545,2.41,0.81,-6.65,-0.15,-1.51,0.14,
2.545,2.41,0.81,-6.65,-0.20,-1.29,0.09,
2.546,2.41,0.81,-6.65,-0.29,-1.12,0.07,
2.546,2.41,0.81,-6.65,-0.38,-1.02,0.09,
2.552,0.77,-0.08,-3.46,-0.38,-1.02,0.09,
2.553,0.77,-0.08,-3.46,-0.44,-0.99,0.16,
2.554,0.77,-0.08,-3.46,-0.48,-1.03,0.24,
2.554,0.77,-0.08,-3.46,-0.46,-1.11,0.33,
2.555,-1.26,-2.72,1.29,-0.46,-1.11,0.33,
2.555,-1.26,-2.72,1.29,-0.41,-1.18,0.44,
2.559,-2.85,-4.67,2.95,-0.41,-1.18,0.44,
2.559,-2.85,-4.67,2.95,-0.36,-1.25,0.55,
2.561,-2.85,-4.67,2.95,-0.30,-1.28,0.64,
2.563,-2.57,-5.75,0.81,-0.30,-1.28,0.64,
2.564,-2.57,-5.75,0.81,-0.25,-1.26,0.71,
2.566,-2.57,-5.75,0.81,-0.21,-1.21,0.77,
2.568,-1.58,-6.09,-0.60,-0.21,-1.21,0.77,
2.568,-1.58,-6.09,-0.60,-0.17,-1.19,0.82,
2.574,-1.58,-6.09,-0.60,-0.12,-1.19,0.84,
2.575,-0.49,-6.48,0.60,-0.12,-1.19,0.84,
2.575,-0.49,-6.48,0.60,-0.07,-1.23,0.86,
2.576,-0.49,-6.48,0.60,-0.00,-1.28,0.86,
2.581,-0.35,-7.00,1.70,-0.00,-1.28,0.86,
2.581,-0.35,-7.00,1.70,0.08,-1.33,0.86,
2.582,-0.35,-7.00,1.70,0.16,-1.36,0.86,
2.586,-0.99,-7.28,1.13,0.16,-1.36,0.86,
2.587,-0.99,-7.28,1.13,0.24,-1.36,0.86,
2.587,-0.99,-7.28,1.13,0.32,-1.33,0.85,
2.59,-1.15,-7.21,-0.22,0.32,-1.33,0.85,
2.59,-1.15,-7.21,-0.22,0.39,-1.26,0.85,
2.591,-1.15,-7.21,-0.22,0.45,-1.18,0.85,
2.594,-1.51,-6.94,-1.09,0.45,-1.18,0.85,
2.595,-1.51,-6.94,-1.09,0.50,-1.07,0.85,
2.597,-1.51,-6.94,-1.09,0.55,-0.96,0.85,
2.601,-2.21,-6.47,-1.49,0.55,-0.96,0.85,
2.602,-2.21,-6.47,-1.49,0.58,-0.85,0.86,
2.603,-2.21,-6.47,-1.49,0.61,-0.75,0.85,
2.604,-1.13,-5.83,-1.92,0.61,-0.75,0.85,
2.604,-1.13,-5.83,-1.92,0.62,-0.65,0.83,
2.607,-1.13,-5.83,-1.92,0.63,-0.55,0.79,
2.611,0.44,-4.98,-2.02,0.63,-0.55,0.79,
2.612,0.44,-4.98,-2.02,0.63,-0.46,0.74,
2.612,0.44,-4.98,-2.02,0.64,-0.38,0.66,
2.614,1.43,-4.09,-1.73,0.64,-0.38,0.66,
2.615,1.43,-4.09,-1.73,0.66,-0.30,0.58,
2.622,1.43,-4.09,-1.73,0.68,-0.23,0.49,
2.623,1.86,-3.40,-1.21,0.68,-0.23,0.49,
2.624,1.86,-3.40,-1.21,0.70,-0.17,0.39,
2.624,1.86,-3.40,-1.21,0.73,-0.14,0.30,
2.625,1.59,-2.44,-0.59,0.73,-0.14,0.30,
2.625,1.59,-2.44,-0.59,0.75,-0.13,0.20,
2.626,1.59,-2.44,-0.59,0.76,-0.13,0.12,
2.63,0.54,-1.34,-0.27,0.76,-0.13,0.12,
2.631,0.54,-1.34,-0.27,0.75,-0.15,0.06,
2.632,0.54,-1.34,-0.27,0.72,-0.21,0.03,
2.637,-1.23,0.79,-0.41,0.72,-0.21,0.03,
2.638,-1.23,0.79,-0.41,0.62,-0.31,0.07,
2.638,-1.23,0.79,-0.41,0.44,-0.42,0.18,
2.639,-2.58,3.24,-0.96,0.44,-0.42,0.18,
2.639,-2.58,3.24,-0.96,0.23,-0.54,0.34,
2.644,-2.58,3.24,-0.96,-0.01,-0.66,0.51,
2.645,-1.79,3.58,-0.75,-0.01,-0.66,0.51,
2.645,-1.79,3.58,-0.75,-0.27,-0.75,0.68,
2.646,-1.79,3.58,-0.75,-0.52,-0.83,0.84,
2.65,-0.98,3.22,-0.78,-0.52,-0.83,0.84,
2.652,-0.98,3.22,-0.78,-0.77,-0.86,0.97,
2.652,-0.98,3.22,-0.78,-0.99,-0.82,1.08,
2.654,-1.26,2.30,-3.58,-0.99,-0.82,1.08,
2.655,-1.26,2.30,-3.58,-1.21,-0.67,1.17,
2.657,-1.26,2.30,-3.58,-1.41,-0.47,1.23,
2.661,-1.11,0.99,-4.84,-1.41,-0.47,1.23,
2.662,-1.11,0.99,-4.84,-1.57,-0.30,1.26,
2.662,-1.11,0.99,-4.84,-1.68,-0.20,1.25,
2.664,0.09,-0.09,-2.24,-1.68,-0.20,1.25,
2.678,0.09,-0.09,-2.24,-1.73,-0.15,1.20,
2.678,0.09,-0.09,-2.24,-1.73,-0.14,1.13,
2.679,0.70,-0.54,0.61,-1.73,-0.14,1.13,
2.68,0.70,-0.54,0.61,-1.67,-0.15,1.03,
2.68,0.70,-0.54,0.61,-1.57,-0.18,0.92,
2.681,0.47,-0.64,2.64,-1.57,-0.18,0.92,
2.682,0.47,-0.64,2.64,-1.44,-0.24,0.80,
2.682,0.47,-0.64,2.64,-1.27,-0.33,0.69,
2.683,0.28,-0.90,5.06,-1.27,-0.33,0.69,
2.684,0.28,-0.90,5.06,-1.10,-0.51,0.59,
2.685,0.28,-0.90,5.06,-0.90,-0.94,0.50,
2.685,1.65,-1.49,8.79,-0.90,-0.94,0.50,
2.69,1.65,-1.49,8.79,-0.73,-1.30,0.42,
2.691,1.65,-1.49,8.79,-0.62,-1.36,0.33,
2.691,1.76,-1.55,0.36,-0.62,-1.36,0.33,
2.692,1.76,-1.55,0.36,-0.54,-1.27,0.26,
2.692,1.76,-1.55,0.36,-0.46,-1.13,0.19,
2.697,1.21,-1.48,-2.93,-0.46,-1.13,0.19,
2.697,1.21,-1.48,-2.93,-0.38,-0.95,0.14,
2.698,1.21,-1.48,-2.93,-0.28,-0.75,0.09,
2.699,1.21,-1.89,-2.13,-0.28,-0.75,0.09,
2.7,1.21,-1.89,-2.13,-0.16,-0.62,0.03,
2.702,1.21,-1.89,-2.13,-0.03,-0.50,0.00,
2.703,0.66,-0.99,0.41,-0.03,-0.50,0.00,
2.704,0.66,-0.99,0.41,0.11,-0.44,-0.01,
2.708,0.66,-0.99,0.41,0.22,-0.43,-0.02,
2.708,0.15,-0.26,0.53,0.22,-0.43,-0.02,
2.709,0.15,-0.26,0.53,0.31,-0.39,-0.01,
2.712,0.15,-0.26,0.53,0.37,-0.35,0.01,
2.714,0.03,0.14,-0.27,0.37,-0.35,0.01,
2.715,0.03,0.14,-0.27,0.41,-0.34,0.03,
2.719,0.03,0.14,-0.27,0.43,-0.34,0.04,
2.72,0.20,0.36,-0.43,0.43,-0.34,0.04,
2.721,0.20,0.36,-0.43,0.44,-0.35,0.04,
2.723,0.20,0.36,-0.43,0.43,-0.37,0.05,
2.724,0.27,0.54,-0.42,0.43,-0.37,0.05,
2.725,0.27,0.54,-0.42,0.42,-0.39,0.06,
2.727,0.27,0.54,-0.42,0.39,-0.45,0.06,
2.729,0.58,0.32,-0.73,0.39,-0.45,0.06,
2.729,0.58,0.32,-0.73,0.36,-0.45,0.05,
2.74,0.58,0.32,-0.73,0.33,-0.43,0.05,
2.741,-0.01,0.09,-1.03,0.33,-0.43,0.05,
2.742,-0.01,0.09,-1.03,0.30,-0.40,0.06,
2.743,0.00,-0.06,-0.72,0.30,-0.40,0.06,
2.743,0.00,-0.06,-0.72,0.26,-0.38,0.06,
2.744,0.00,-0.06,-0.72,0.24,-0.36,0.05,
2.744,0.00,-0.06,-0.72,0.21,-0.34,0.05,
2.745,0.26,-0.13,-0.54,0.21,-0.34,0.05,
2.745,0.26,-0.13,-0.54,0.19,-0.32,0.03,
2.752,0.26,-0.13,-0.54,0.16,-0.30,0.02,
2.752,0.26,-0.13,-0.54,0.14,-0.28,-0.00,
2.753,0.46,-0.06,-0.52,0.14,-0.28,-0.00,
2.753,0.46,-0.06,-0.52,0.11,-0.25,-0.02,
2.757,0.29,-0.02,-0.50,0.11,-0.25,-0.02,
2.758,0.29,-0.02,-0.50,0.08,-0.23,-0.03,
2.758,0.29,-0.02,-0.50,0.03,-0.19,-0.04,
2.761,0.23,0.19,-0.54,0.03,-0.19,-0.04,
2.762,0.23,0.19,-0.54,-0.02,-0.17,-0.05,
2.763,0.23,0.19,-0.54,-0.06,-0.18,-0.04,
2.766,-0.15,0.17,-0.10,-0.06,-0.18,-0.04,
2.767,-0.15,0.17,-0.10,-0.10,-0.19,-0.03,
2.768,-0.15,0.17,-0.10,-0.12,-0.19,-0.01,
2.771,-0.29,-0.07,-0.01,-0.12,-0.19,-0.01,
2.771,-0.29,-0.07,-0.01,-0.14,-0.20,-0.01,
2.772,-0.29,-0.07,-0.01,-0.15,-0.21,-0.02,
2.775,-0.07,-0.63,0.23,-0.15,-0.21,-0.02,
2.776,-0.07,-0.63,0.23,-0.16,-0.22,-0.05,
2.777,-0.07,-0.63,0.23,-0.16,-0.23,-0.10,
2.779,-0.09,-1.02,0.42,-0.16,-0.23,-0.10,
2.78,-0.09,-1.02,0.42,-0.15,-0.25,-0.15,
2.785,-0.09,-1.02,0.42,-0.15,-0.28,-0.20,
2.786,-0.58,-0.73,0.56,-0.15,-0.28,-0.20,
2.787,-0.58,-0.73,0.56,-0.14,-0.31,-0.23,
2.787,-0.58,-0.73,0.56,-0.13,-0.34,-0.24,
2.79,-0.89,-0.31,0.50,-0.13,-0.34,-0.24,
2.791,-0.89,-0.31,0.50,-0.13,-0.37,-0.24,
2.791,-0.89,-0.31,0.50,-0.13,-0.40,-0.25,
2.794,-0.76,0.26,0.41,-0.13,-0.40,-0.25,
2.794,-0.76,0.26,0.41,-0.13,-0.42,-0.27,
2.798,-0.76,0.26,0.41,-0.14,-0.44,-0.27,
2.802,-0.75,0.35,0.29,-0.14,-0.44,-0.27,
2.804,-0.75,0.35,0.29,-0.15,-0.46,-0.28,
2.804,-0.75,0.35,0.29,-0.18,-0.48,-0.28,
2.805,-0.66,0.49,0.23,-0.18,-0.48,-0.28,
2.805,-0.66,0.49,0.23,-0.20,-0.50,-0.29,
2.808,-0.66,0.49,0.23,-0.24,-0.51,-0.30,
2.809,-0.53,0.53,-0.06,-0.24,-0.51,-0.30,
2.809,-0.53,0.53,-0.06,-0.27,-0.51,-0.32,
2.812,-0.53,0.53,-0.06,-0.31,-0.51,-0.33,
2.819,-0.53,0.53,-0.06,-0.33,-0.52,-0.34,
2.82,-0.49,0.67,0.03,-0.33,-0.52,-0.34,
2.821,-0.49,0.67,0.03,-0.35,-0.53,-0.36,
2.821,-0.31,0.77,0.50,-0.35,-0.53,-0.36,
2.822,-0.31,0.77,0.50,-0.37,-0.55,-0.37,
2.823,-0.31,0.77,0.50,-0.38,-0.57,-0.40,
2.826,-0.26,0.86,0.61,-0.38,-0.57,-0.40,
2.827,-0.26,0.86,0.61,-0.39,-0.59,-0.43,
2.829,-0.26,0.86,0.61,-0.40,-0.61,-0.46,
2.83,-0.28,0.89,0.64,-0.40,-0.61,-0.46,
2.83,-0.28,0.89,0.64,-0.39,-0.62,-0.50,
2.84,-0.28,0.89,0.64,-0.38,-0.62,-0.54,
2.84,-0.39,0.96,0.72,-0.38,-0.62,-0.54,
2.841,-0.39,0.96,0.72,-0.35,-0.62,-0.58,
2.841,-0.39,0.96,0.72,-0.32,-0.62,-0.61,
2.841,-0.43,1.14,1.03,-0.32,-0.62,-0.61,
2.842,-0.43,1.14,1.03,-0.29,-0.63,-0.66,
2.842,-0.43,1.14,1.03,-0.26,-0.65,-0.69,
2.847,-0.46,1.28,1.12,-0.26,-0.65,-0.69,
2.849,-0.46,1.28,1.12,-0.23,-0.67,-0.73,
2.849,-0.46,1.28,1.12,-0.22,-0.71,-0.77,
2.85,-0.53,1.55,1.16,-0.22,-0.71,-0.77,
2.851,-0.53,1.55,1.16,-0.22,-0.75,-0.80,
2.851,-0.53,1.55,1.16,-0.24,-0.82,-0.81,
2.855,-0.75,2.08,1.11,-0.24,-0.82,-0.81,
2.855,-0.75,2.08,1.11,-0.28,-0.90,-0.81,
2.857,-0.75,2.08,1.11,-0.34,-1.00,-0.79,
2.859,-0.89,2.59,1.06,-0.34,-1.00,-0.79,
2.86,-0.89,2.59,1.06,-0.42,-1.10,-0.76,
2.862,-0.89,2.59,1.06,-0.51,-1.19,-0.71,
2.865,-0.85,2.80,0.72,-0.51,-1.19,-0.71,
2.865,-0.85,2.80,0.72,-0.61,-1.27,-0.64,
2.869,-0.85,2.80,0.72,-0.70,-1.32,-0.56,
2.87,-0.75,2.44,0.23,-0.70,-1.32,-0.56,
2.872,-0.75,2.44,0.23,-0.79,-1.35,-0.47,
2.873,-0.75,2.44,0.23,-0.86,-1.36,-0.37,
2.874,-0.75,2.44,0.23,-0.91,-1.37,-0.26,
2.874,-0.59,1.72,0.09,-0.91,-1.37,-0.26,
2.878,-0.59,1.72,0.09,-0.94,-1.38,-0.16,
2.88,-0.59,1.72,0.09,-0.95,-1.39,-0.05,
2.881,-0.57,1.03,0.07,-0.95,-1.39,-0.05,
2.885,-0.57,1.03,0.07,-0.94,-1.37,0.06,
2.886,-0.78,0.47,-0.29,-0.94,-1.37,0.06,
2.888,-0.78,0.47,-0.29,-0.91,-1.33,0.17,
2.889,-0.78,0.47,-0.29,-0.87,-1.27,0.27,
2.889,-1.05,0.21,-0.66,-0.87,-1.27,0.27,
2.889,-1.05,0.21,-0.66,-0.81,-1.20,0.36,
2.893,-1.05,0.21,-0.66,-0.74,-1.13,0.46,
2.896,-1.21,0.19,-1.04,-0.74,-1.13,0.46,
2.896,-1.21,0.19,-1.04,-0.67,-1.03,0.56,
2.897,-1.21,0.19,-1.04,-0.59,-0.94,0.65,
2.903,-1.24,0.49,-1.25,-0.59,-0.94,0.65,
2.903,-1.24,0.49,-1.25,-0.51,-0.85,0.74,
2.904,-1.24,0.49,-1.25,-0.44,-0.77,0.82,
2.905,-1.23,0.95,-1.28,-0.44,-0.77,0.82,
2.905,-1.23,0.95,-1.28,-0.37,-0.69,0.90,
2.907,-1.23,0.95,-1.28,-0.30,-0.62,0.97,
2.909,-1.18,1.54,-1.25,-0.30,-0.62,0.97,
2.909,-1.18,1.54,-1.25,-0.24,-0.54,1.03,
2.913,-1.18,1.54,-1.25,-0.19,-0.48,1.09,
2.919,-1.21,2.49,-0.96,-0.19,-0.48,1.09,
2.92,-1.21,2.49,-0.96,-0.13,-0.43,1.14,
2.921,-1.21,2.49,-0.96,-0.07,-0.39,1.19,
2.921,-1.23,3.36,-0.30,-0.07,-0.39,1.19,
2.922,-1.23,3.36,-0.30,-0.01,-0.37,1.24,
2.923,-1.23,3.36,-0.30,0.06,-0.36,1.29,
2.926,-1.08,3.86,0.62,0.06,-0.36,1.29,
2.927,-1.08,3.86,0.62,0.13,-0.38,1.32,
2.928,-1.08,3.86,0.62,0.21,-0.42,1.33,
2.93,-0.88,3.99,1.45,0.21,-0.42,1.33,
2.93,-0.88,3.99,1.45,0.28,-0.49,1.34,
2.933,-0.88,3.99,1.45,0.34,-0.56,1.33,
2.934,-0.74,4.13,1.83,0.34,-0.56,1.33,
2.935,-0.74,4.13,1.83,0.40,-0.64,1.32,
2.938,-0.74,4.13,1.83,0.43,-0.71,1.30,
2.941,-0.37,4.33,1.55,0.43,-0.71,1.30,
2.941,-0.37,4.33,1.55,0.46,-0.76,1.25,
2.943,-0.37,4.33,1.55,0.47,-0.78,1.18,
2.945,0.11,4.19,0.85,0.47,-0.78,1.18,
2.946,0.11,4.19,0.85,0.48,-0.78,1.11,
2.946,0.11,4.19,0.85,0.48,-0.75,1.02,
2.95,0.49,3.65,0.38,0.48,-0.75,1.02,
2.951,0.49,3.65,0.38,0.48,-0.71,0.93,
2.953,0.49,3.65,0.38,0.49,-0.66,0.83,
2.954,0.90,3.12,0.35,0.49,-0.66,0.83,
2.955,0.90,3.12,0.35,0.49,-0.61,0.72,
2.958,0.90,3.12,0.35,0.49,-0.55,0.63,
2.961,0.99,2.71,0.17,0.49,-0.55,0.63,
2.962,0.99,2.71,0.17,0.49,-0.48,0.54,
2.962,0.99,2.71,0.17,0.50,-0.41,0.45,
2.968,1.01,2.52,0.46,0.50,-0.41,0.45,
2.969,1.01,2.52,0.46,0.50,-0.36,0.37,
2.97,1.01,2.52,0.46,0.51,-0.34,0.30,
2.97,1.01,2.52,0.46,0.50,-0.35,0.25,
2.971,1.02,2.25,0.75,0.50,-0.35,0.25,
2.971,1.02,2.25,0.75,0.50,-0.37,0.20,
2.976,1.09,1.83,0.93,0.50,-0.37,0.20,
2.977,1.09,1.83,0.93,0.49,-0.40,0.16,
2.978,1.09,1.83,0.93,0.49,-0.43,0.12,
2.98,1.02,1.33,0.91,0.49,-0.43,0.12,
2.981,1.02,1.33,0.91,0.48,-0.47,0.09,
2.981,1.02,1.33,0.91,0.47,-0.48,0.07,
2.987,1.02,1.33,0.91,0.46,-0.41,0.09,
2.987,0.90,0.78,0.13,0.46,-0.41,0.09,
2.988,0.90,0.78,0.13,0.45,-0.31,0.14,
2.99,0.78,-0.42,-0.80,0.45,-0.31,0.14,
2.99,0.78,-0.42,-0.80,0.44,-0.21,0.19,
2.993,0.78,-0.42,-0.80,0.43,-0.13,0.23,
2.996,0.70,-1.17,-0.69,0.43,-0.13,0.23,
2.997,0.70,-1.17,-0.69,0.42,-0.08,0.25,
2.997,0.70,-1.17,-0.69,0.42,-0.05,0.24,
3.01,0.60,-1.25,-0.13,0.42,-0.05,0.24,
3.011,0.60,-1.25,-0.13,0.43,-0.07,0.22,
3.012,0.60,-1.25,-0.13,0.44,-0.11,0.19,
3.012,0.30,-0.76,0.65,0.44,-0.11,0.19,
3.013,0.30,-0.76,0.65,0.46,-0.18,0.16,
3.014,0.30,-0.76,0.65,0.48,-0.25,0.15,
3.014,-0.21,-0.34,0.99,0.48,-0.25,0.15,
3.015,-0.21,-0.34,0.99,0.52,-0.30,0.16,
3.016,-0.21,-0.34,0.99,0.55,-0.28,0.19,
3.016,-0.38,-0.69,0.15,0.55,-0.28,0.19,
3.017,-0.38,-0.69,0.15,0.58,-0.23,0.22,
3.017,-0.38,-0.69,0.15,0.61,-0.18,0.26,
3.024,-0.84,-1.36,-0.42,0.61,-0.18,0.26,
3.025,-0.84,-1.36,-0.42,0.63,-0.13,0.30,
3.025,-0.84,-1.36,-0.42,0.64,-0.09,0.36,
3.026,-1.70,-1.75,-0.52,0.64,-0.09,0.36,
3.026,-1.70,-1.75,-0.52,0.66,-0.07,0.43,
3.027,-1.70,-1.75,-0.52,0.66,-0.06,0.50,
3.031,-2.41,-1.79,-0.74,0.66,-0.06,0.50,
3.031,-2.41,-1.79,-0.74,0.65,-0.07,0.58,
3.032,-2.41,-1.79,-0.74,0.63,-0.08,0.66,
3.036,-2.91,-1.40,-0.93,0.63,-0.08,0.66,
3.037,-2.91,-1.40,-0.93,0.61,-0.07,0.74,
3.037,-2.91,-1.40,-0.93,0.58,-0.06,0.83,
3.04,-2.84,-0.99,-1.18,0.58,-0.06,0.83,
3.041,-2.84,-0.99,-1.18,0.56,-0.04,0.90,
3.042,-2.84,-0.99,-1.18,0.54,-0.04,0.97,
3.046,-2.84,-0.99,-1.18,0.52,-0.04,1.03,
3.047,-2.56,-0.56,-0.87,0.52,-0.04,1.03,
3.047,-2.56,-0.56,-0.87,0.50,-0.07,1.09,
3.052,-2.22,0.08,-0.44,0.50,-0.07,1.09,
3.053,-2.22,0.08,-0.44,0.48,-0.10,1.14,
3.053,-2.22,0.08,-0.44,0.46,-0.15,1.17,
3.054,-1.92,0.65,-0.15,0.46,-0.15,1.17,
3.055,-1.92,0.65,-0.15,0.44,-0.19,1.21,
3.057,-1.92,0.65,-0.15,0.42,-0.25,1.25,
3.059,-1.67,0.89,0.11,0.42,-0.25,1.25,
3.06,-1.67,0.89,0.11,0.41,-0.31,1.28,
3.063,-1.67,0.89,0.11,0.39,-0.39,1.30,
3.067,-1.46,1.08,0.40,0.39,-0.39,1.30,
3.068,-1.46,1.08,0.40,0.38,-0.46,1.33,
3.068,-1.46,1.08,0.40,0.36,-0.54,1.35,
3.072,-1.02,0.81,0.41,0.36,-0.54,1.35,
3.072,-1.02,0.81,0.41,0.34,-0.59,1.35,
3.073,-1.02,0.81,0.41,0.32,-0.63,1.35,
3.075,-0.43,0.37,0.12,0.32,-0.63,1.35,
3.075,-0.43,0.37,0.12,0.29,-0.67,1.32,
3.077,-0.43,0.37,0.12,0.25,-0.70,1.29,
3.08,0.04,-0.02,-0.15,0.25,-0.70,1.29,
3.081,0.04,-0.02,-0.15,0.21,-0.70,1.26,
3.086,0.04,-0.02,-0.15,0.19,-0.69,1.23,
3.086,0.36,0.05,-0.34,0.19,-0.69,1.23,
3.087,0.36,0.05,-0.34,0.16,-0.66,1.21,
3.088,0.36,0.05,-0.34,0.14,-0.61,1.19,
3.093,0.60,0.20,-0.47,0.14,-0.61,1.19,
3.093,0.60,0.20,-0.47,0.13,-0.56,1.16,
3.094,0.60,0.20,-0.47,0.12,-0.49,1.12,
3.096,0.82,0.59,-0.43,0.12,-0.49,1.12,
3.097,0.82,0.59,-0.43,0.12,-0.42,1.08,
3.097,0.82,0.59,-0.43,0.13,-0.37,1.03,
3.101,1.09,0.92,-0.02,0.13,-0.37,1.03,
3.102,1.09,0.92,-0.02,0.14,-0.32,0.97,
3.103,1.09,0.92,-0.02,0.15,-0.27,0.89,
3.106,0.90,1.09,0.31,0.15,-0.27,0.89,
3.107,0.90,1.09,0.31,0.16,-0.24,0.83,
3.108,0.90,1.09,0.31,0.18,-0.30,0.80,
3.11,-0.22,1.70,1.29,0.18,-0.30,0.80,
3.111,-0.22,1.70,1.29,0.20,-0.33,0.81,
3.112,-0.22,1.70,1.29,0.23,-0.35,0.83,
3.12,-0.89,1.45,0.79,0.23,-0.35,0.83,
3.121,-0.89,1.45,0.79,0.25,-0.35,0.87,
3.122,-0.89,1.45,0.79,0.27,-0.35,0.90,
3.122,-1.12,0.93,0.86,0.27,-0.35,0.90,
3.123,-1.12,0.93,0.86,0.30,-0.37,0.90,
3.123,-1.12,0.93,0.86,0.31,-0.40,0.94,
3.125,-1.74,1.03,0.77,0.31,-0.40,0.94,
3.125,-1.74,1.03,0.77,0.31,-0.46,0.98,
3.129,-1.74,1.03,0.77,0.32,-0.50,1.02,
3.13,-1.83,0.66,0.76,0.32,-0.50,1.02,
3.13,-1.83,0.66,0.76,0.34,-0.54,1.07,
3.134,-1.83,0.66,0.76,0.34,-0.59,1.13,
3.135,-2.35,0.85,0.87,0.34,-0.59,1.13,
3.135,-2.35,0.85,0.87,0.35,-0.65,1.20,
3.139,-2.35,0.85,0.87,0.35,-0.72,1.28,
3.139,-2.28,0.34,0.72,0.35,-0.72,1.28,
3.14,-2.28,0.34,0.72,0.34,-0.80,1.36,
3.143,-2.28,0.34,0.72,0.33,-0.88,1.42,
3.145,-1.68,-0.63,0.73,0.33,-0.88,1.42,
3.145,-1.68,-0.63,0.73,0.32,-0.97,1.47,
3.148,-1.68,-0.63,0.73,0.31,-1.06,1.50,
3.15,-1.09,-1.47,0.28,0.31,-1.06,1.50,
3.151,-1.09,-1.47,0.28,0.25,-1.15,1.54,
3.153,-1.09,-1.47,0.28,0.21,-1.22,1.52,
3.157,-0.09,-3.30,-0.09,0.21,-1.22,1.52,
3.158,-0.09,-3.30,-0.09,0.21,-1.25,1.48,
3.158,-0.09,-3.30,-0.09,0.17,-1.30,1.49,
3.161,-1.12,-1.70,-0.56,0.17,-1.30,1.49,
3.161,-1.12,-1.70,-0.56,0.06,-1.38,1.56,
3.162,-1.12,-1.70,-0.56,-0.01,-1.52,1.68,
3.165,-1.57,-1.44,0.98,-0.01,-1.52,1.68,
3.179,-1.57,-1.44,0.98,-0.01,-1.64,1.78,
3.179,-1.57,-1.44,0.98,0.01,-1.72,1.87,
3.18,-0.96,-2.72,0.41,0.01,-1.72,1.87,
3.18,-0.96,-2.72,0.41,0.04,-1.74,1.94,
3.181,-0.96,-2.72,0.41,0.07,-1.69,1.98,
3.181,-0.23,-4.28,-1.15,0.07,-1.69,1.98,
3.181,-0.23,-4.28,-1.15,0.10,-1.60,2.00,
3.182,-0.23,-4.28,-1.15,0.14,-1.48,2.01,
3.182,0.14,-4.90,-2.08,0.14,-1.48,2.01,
3.183,0.14,-4.90,-2.08,0.18,-1.33,2.03,
3.183,0.14,-4.90,-2.08,0.21,-1.19,2.06,
3.192,0.50,-4.97,-1.91,0.21,-1.19,2.06,
3.193,0.50,-4.97,-1.91,0.26,-1.08,2.08,
3.193,0.50,-4.97,-1.91,0.32,-1.01,2.08,
3.194,1.14,-5.07,-1.12,0.32,-1.01,2.08,
3.194,1.14,-5.07,-1.12,0.37,-0.95,2.07,
3.195,1.14,-5.07,-1.12,0.42,-0.88,2.04,
3.196,1.60,-4.99,-0.79,0.42,-0.88,2.04,
3.196,1.60,-4.99,-0.79,0.46,-0.85,2.00,
3.197,1.60,-4.99,-0.79,0.46,-0.77,1.93,
3.204,2.08,-4.95,-1.98,0.46,-0.77,1.93,
3.205,2.08,-4.95,-1.98,0.45,-0.68,1.83,
3.205,2.08,-4.95,-1.98,0.47,-0.65,1.72,
3.205,2.57,-4.88,0.15,0.47,-0.65,1.72,
3.206,2.57,-4.88,0.15,0.52,-0.73,1.57,
3.208,2.57,-4.88,0.15,0.53,-0.74,1.44,
3.21,2.32,-4.49,-0.60,0.53,-0.74,1.44,
3.211,2.32,-4.49,-0.60,0.53,-0.74,1.33,
3.212,2.32,-4.49,-0.60,0.53,-0.76,1.22,
3.217,2.23,-4.14,-0.32,0.53,-0.76,1.22,
3.217,2.23,-4.14,-0.32,0.54,-0.82,1.09,
3.218,2.23,-4.14,-0.32,0.50,-0.81,0.97,
3.221,1.90,-3.49,-1.36,0.50,-0.81,0.97,
3.227,1.63,-2.96,-0.59,0.50,-0.81,0.97,
3.231,1.23,-2.36,-0.51,0.50,-0.81,0.97,
3.232,1.23,-2.36,-0.51,0.46,-0.79,0.87,
3.232,1.23,-2.36,-0.51,0.44,-0.80,0.78,
3.232,1.23,-2.36,-0.51,0.42,-0.83,0.70,
3.233,1.23,-2.36,-0.51,0.41,-0.87,0.62,
3.233,1.23,-2.36,-0.51,0.39,-0.88,0.57,
3.233,1.23,-2.36,-0.51,0.37,-0.87,0.52,
3.237,1.23,-2.36,-0.51,0.35,-0.84,0.49,
3.238,0.97,-1.80,-1.03,0.35,-0.84,0.49,
3.239,0.97,-1.80,-1.03,0.32,-0.79,0.47,
3.242,0.97,-1.80,-1.03,0.31,-0.74,0.46,
3.243,0.81,-1.21,-1.18,0.31,-0.74,0.46,
3.244,0.81,-1.21,-1.18,0.31,-0.70,0.45,
3.246,0.81,-1.21,-1.18,0.32,-0.65,0.45,
3.247,0.80,-0.87,-0.76,0.32,-0.65,0.45,
3.247,0.80,-0.87,-0.76,0.33,-0.61,0.45,
3.252,0.80,-0.87,-0.76,0.35,-0.56,0.46,
3.253,0.82,-0.46,-0.48,0.35,-0.56,0.46,
3.253,0.82,-0.46,-0.48,0.38,-0.52,0.46,
3.256,0.92,-0.35,-0.46,0.38,-0.52,0.46,
3.257,0.92,-0.35,-0.46,0.40,-0.46,0.47,
3.257,0.92,-0.35,-0.46,0.44,-0.42,0.48,
3.262,0.85,-0.34,-0.14,0.44,-0.42,0.48,
3.262,0.85,-0.34,-0.14,0.48,-0.39,0.51,
3.263,0.85,-0.34,-0.14,0.53,-0.37,0.54,
3.268,0.65,-0.22,0.38,0.53,-0.37,0.54,
3.269,0.65,-0.22,0.38,0.58,-0.37,0.59,
3.27,0.65,-0.22,0.38,0.66,-0.39,0.67,
3.27,-0.03,-0.05,0.67,0.66,-0.39,0.67,
3.271,-0.03,-0.05,0.67,0.73,-0.41,0.79,
3.273,-0.03,-0.05,0.67,0.79,-0.42,0.92,
3.276,0.17,0.28,0.24,0.79,-0.42,0.92,
3.277,0.17,0.28,0.24,0.84,-0.43,1.03,
3.279,0.17,0.28,0.24,0.85,-0.41,1.09,
3.281,1.48,0.36,-1.42,0.85,-0.41,1.09,
3.282,1.48,0.36,-1.42,0.80,-0.34,1.08,
3.286,1.48,0.36,-1.42,0.75,-0.28,1.09,
3.286,1.04,0.28,-1.33,0.75,-0.28,1.09,
3.287,1.04,0.28,-1.33,0.70,-0.25,1.12,
3.288,1.04,0.28,-1.33,0.65,-0.23,1.15,
3.291,0.68,0.09,-0.45,0.65,-0.23,1.15,
3.292,0.68,0.09,-0.45,0.60,-0.25,1.18,
3.293,0.68,0.09,-0.45,0.58,-0.33,1.22,
3.296,0.54,0.18,0.98,0.58,-0.33,1.22,
3.297,0.54,0.18,0.98,0.56,-0.43,1.26,
3.297,0.54,0.18,0.98,0.48,-0.49,1.26,
3.303,0.74,-0.05,-0.32,0.48,-0.49,1.26,
3.304,0.74,-0.05,-0.32,0.36,-0.53,1.24,
3.304,0.74,-0.05,-0.32,0.22,-0.54,1.21,
3.305,0.60,-0.34,-0.96,0.22,-0.54,1.21,
3.305,0.60,-0.34,-0.96,0.07,-0.53,1.17,
3.308,0.60,-0.34,-0.96,-0.07,-0.51,1.12,
3.312,0.29,-0.75,-0.16,-0.07,-0.51,1.12,
3.313,0.29,-0.75,-0.16,-0.16,-0.54,1.07,
3.313,0.29,-0.75,-0.16,-0.21,-0.62,1.02,
3.322,-0.08,-1.13,1.84,-0.21,-0.62,1.02,
3.323,-0.08,-1.13,1.84,-0.21,-0.75,0.96,
3.324,-0.08,-1.13,1.84,-0.19,-0.87,0.91,
3.324,-0.44,-1.17,2.05,-0.19,-0.87,0.91,
3.325,-0.44,-1.17,2.05,-0.16,-0.97,0.86,
3.325,-0.44,-1.17,2.05,-0.15,-1.03,0.81,
3.326,-0.67,-1.05,0.86,-0.15,-1.03,0.81,
3.326,-0.67,-1.05,0.86,-0.14,-1.06,0.77,
3.331,-0.67,-1.05,0.86,-0.14,-1.05,0.74,
3.332,-0.80,-0.99,-0.08,-0.14,-1.05,0.74,
3.333,-0.80,-0.99,-0.08,-0.15,-1.03,0.70,
3.352,-0.80,-0.99,-0.08,-0.15,-0.99,0.67,
3.353,-0.80,-1.02,-0.63,-0.15,-0.99,0.67,
3.353,-0.80,-1.02,-0.63,-0.16,-0.93,0.64,
3.354,-0.80,-1.02,-0.63,-0.16,-0.87,0.61,
3.355,-0.74,-1.13,-0.78,-0.16,-0.87,0.61,
3.355,-0.74,-1.13,-0.78,-0.16,-0.80,0.58,
3.356,-0.74,-1.13,-0.78,-0.16,-0.74,0.55,
3.356,-0.62,-1.30,-0.80,-0.16,-0.74,0.55,
3.357,-0.62,-1.30,-0.80,-0.15,-0.67,0.52,
3.357,-0.62,-1.30,-0.80,-0.15,-0.60,0.49,
3.357,-0.51,-1.35,-0.80,-0.15,-0.60,0.49,
3.358,-0.51,-1.35,-0.80,-0.14,-0.53,0.47,
3.358,-0.51,-1.35,-0.80,-0.12,-0.46,0.44,
3.359,-0.43,-1.40,-0.77,-0.12,-0.46,0.44,
3.359,-0.43,-1.40,-0.77,-0.12,-0.39,0.42,
3.359,-0.43,-1.40,-0.77,-0.11,-0.33,0.40,
3.363,-0.47,-1.41,-0.69,-0.11,-0.33,0.40,
3.363,-0.47,-1.41,-0.69,-0.10,-0.27,0.38,
3.364,-0.47,-1.41,-0.69,-0.10,-0.22,0.36,
3.366,-0.48,-1.35,-0.51,-0.10,-0.22,0.36,
3.366,-0.48,-1.35,-0.51,-0.10,-0.18,0.34,
3.369,-0.48,-1.35,-0.51,-0.09,-0.14,0.32,
3.37,-0.51,-1.33,-0.37,-0.09,-0.14,0.32,
3.37,-0.51,-1.33,-0.37,-0.09,-0.11,0.31,
3.373,-0.51,-1.33,-0.37,-0.09,-0.08,0.30,
3.377,-0.54,-1.22,-0.27,-0.09,-0.08,0.30,
3.377,-0.54,-1.22,-0.27,-0.09,-0.06,0.29,
3.377,-0.54,-1.22,-0.27,-0.08,-0.05,0.27,
3.382,-0.61,-1.17,-0.17,-0.08,-0.05,0.27,
3.382,-0.61,-1.17,-0.17,-0.08,-0.03,0.26,
3.383,-0.61,-1.17,-0.17,-0.08,-0.02,0.25,
3.388,-0.67,-1.13,-0.13,-0.08,-0.02,0.25,
3.388,-0.67,-1.13,-0.13,-0.08,-0.01,0.24,
3.389,-0.67,-1.13,-0.13,-0.08,0.00,0.22,
3.391,-0.70,-1.06,-0.10,-0.08,0.00,0.22,
3.392,-0.70,-1.06,-0.10,-0.08,0.02,0.21,
3.394,-0.70,-1.06,-0.10,-0.07,0.04,0.20,
3.396,-0.71,-0.95,-0.15,-0.07,0.04,0.20,
3.397,-0.71,-0.95,-0.15,-0.08,0.06,0.18,
3.399,-0.71,-0.95,-0.15,-0.09,0.08,0.17,
3.401,-0.65,-0.90,-0.25,-0.09,0.08,0.17,
3.402,-0.65,-0.90,-0.25,-0.10,0.11,0.15,
3.403,-0.65,-0.90,-0.25,-0.11,0.14,0.12,
3.405,-0.52,-0.79,-0.23,-0.11,0.14,0.12,
3.406,-0.52,-0.79,-0.23,-0.12,0.17,0.10,
3.409,-0.52,-0.79,-0.23,-0.13,0.20,0.07,
3.411,-0.45,-0.57,-0.11,-0.13,0.20,0.07,
3.411,-0.45,-0.57,-0.11,-0.14,0.23,0.04,
3.414,-0.45,-0.57,-0.11,-0.15,0.26,0.01,
3.421,-0.49,-0.19,0.11,-0.15,0.26,0.01,
3.422,-0.49,-0.19,0.11,-0.15,0.28,-0.00,
3.423,-0.49,-0.19,0.11,-0.15,0.30,-0.01,
3.423,-0.49,-0.19,0.11,-0.16,0.31,-0.02,
3.424,-0.57,0.34,0.31,-0.16,0.31,-0.02,
3.424,-0.57,0.34,0.31,-0.17,0.29,-0.02,
3.426,-0.34,0.85,0.59,-0.17,0.29,-0.02,
3.427,-0.34,0.85,0.59,-0.18,0.25,-0.02,
3.428,-0.34,0.85,0.59,-0.18,0.19,-0.02,
3.438,0.01,1.35,0.65,-0.18,0.19,-0.02,
3.439,0.01,1.35,0.65,-0.19,0.12,-0.02,
3.439,0.01,1.35,0.65,-0.19,0.03,-0.00,
3.44,0.42,2.16,0.74,-0.19,0.03,-0.00,
3.44,0.42,2.16,0.74,-0.19,-0.06,0.02,
3.441,0.42,2.16,0.74,-0.18,-0.13,0.04,
3.441,0.66,2.44,-0.13,-0.18,-0.13,0.04,
3.442,0.66,2.44,-0.13,-0.18,-0.18,0.06,
3.444,0.66,2.44,-0.13,-0.18,-0.15,0.09,
3.446,0.72,2.27,-1.37,-0.18,-0.15,0.09,
3.447,0.72,2.27,-1.37,-0.19,-0.06,0.12,
3.449,0.72,2.27,-1.37,-0.21,0.08,0.15,
3.451,0.89,1.70,-1.52,-0.21,0.08,0.15,
3.452,0.89,1.70,-1.52,-0.22,0.23,0.17,
3.453,0.89,1.70,-1.52,-0.23,0.35,0.19,
3.456,1.06,1.05,-0.32,-0.23,0.35,0.19,
3.457,1.06,1.05,-0.32,-0.24,0.44,0.21,
3.458,1.06,1.05,-0.32,-0.24,0.47,0.22,
3.462,0.96,0.55,0.94,-0.24,0.47,0.22,
3.463,0.96,0.55,0.94,-0.25,0.46,0.22,
3.463,0.96,0.55,0.94,-0.24,0.45,0.22,
3.468,0.68,0.31,1.46,-0.24,0.45,0.22,
3.469,0.68,0.31,1.46,-0.24,0.43,0.22,
3.469,0.68,0.31,1.46,-0.24,0.40,0.22,
3.473,0.39,0.24,1.40,-0.24,0.40,0.22,
3.473,0.39,0.24,1.40,-0.25,0.37,0.22,
3.474,0.39,0.24,1.40,-0.27,0.34,0.21,
3.477,0.38,0.37,0.97,-0.27,0.34,0.21,
3.478,0.38,0.37,0.97,-0.29,0.32,0.20,
3.478,0.38,0.37,0.97,-0.32,0.30,0.20,
3.482,1.62,0.96,0.96,-0.32,0.30,0.20,
3.483,1.62,0.96,0.96,-0.34,0.27,0.18,
3.483,1.62,0.96,0.96,-0.35,0.23,0.14,
3.488,4.46,1.98,1.28,-0.35,0.23,0.14,
3.489,4.46,1.98,1.28,-0.34,0.18,0.09,
3.489,4.46,1.98,1.28,-0.32,0.16,0.03,
3.493,6.29,2.94,0.72,-0.32,0.16,0.03,
3.494,6.29,2.94,0.72,-0.31,0.15,-0.02,
3.494,6.29,2.94,0.72,-0.31,0.16,-0.07,
3.497,5.03,2.89,0.12,-0.31,0.16,-0.07,
3.498,5.03,2.89,0.12,-0.31,0.18,-0.09,
3.499,5.03,2.89,0.12,-0.29,0.16,-0.06,
3.512,1.09,1.65,1.18,-0.29,0.16,-0.06,
3.513,1.09,1.65,1.18,-0.24,0.11,0.02,
3.513,1.09,1.65,1.18,-0.19,0.04,0.13,
3.514,-2.31,0.68,2.15,-0.19,0.04,0.13,
3.514,-2.31,0.68,2.15,-0.14,-0.03,0.26,
3.515,-2.31,0.68,2.15,-0.08,-0.12,0.39,
3.515,-4.00,0.34,2.89,-0.08,-0.12,0.39,
3.516,-4.00,0.34,2.89,-0.02,-0.24,0.52,
3.516,-4.00,0.34,2.89,0.04,-0.39,0.63,
3.516,-3.88,0.28,3.02,0.04,-0.39,0.63,
3.517,-3.88,0.28,3.02,0.09,-0.55,0.72,
3.52,-3.88,0.28,3.02,0.14,-0.69,0.80,
3.521,-2.47,0.12,2.07,0.14,-0.69,0.80,
3.522,-2.47,0.12,2.07,0.16,-0.82,0.86,
3.523,-2.47,0.12,2.07,0.17,-0.91,0.91,
3.526,-0.46,-0.16,0.66,0.17,-0.91,0.91,
3.527,-0.46,-0.16,0.66,0.18,-0.98,0.93,
3.528,-0.46,-0.16,0.66,0.17,-1.00,0.92,
3.531,1.39,-0.81,-0.86,0.17,-1.00,0.92,
3.531,1.39,-0.81,-0.86,0.16,-0.98,0.87,
3.535,1.39,-0.81,-0.86,0.14,-0.90,0.78,
3.536,2.51,-2.55,-2.17,0.14,-0.90,0.78,
3.536,2.51,-2.55,-2.17,0.12,-0.80,0.63,
3.539,2.51,-2.55,-2.17,0.09,-0.66,0.44,
3.542,3.66,-4.34,-3.03,0.09,-0.66,0.44,
3.543,3.66,-4.34,-3.03,0.06,-0.50,0.19,
3.543,3.66,-4.34,-3.03,0.04,-0.34,-0.07,
3.546,4.41,-5.28,-3.16,0.04,-0.34,-0.07,
3.547,4.41,-5.28,-3.16,0.02,-0.19,-0.33,
3.55,4.41,-5.28,-3.16,0.00,-0.07,-0.57,
3.551,4.12,-4.82,-2.68,0.00,-0.07,-0.57,
3.551,4.12,-4.82,-2.68,-0.01,0.03,-0.76,
3.553,4.12,-4.82,-2.68,-0.02,0.10,-0.88,
3.556,2.42,-2.96,-1.65,-0.02,0.10,-0.88,
3.557,2.42,-2.96,-1.65,-0.02,0.17,-0.95,
3.559,2.42,-2.96,-1.65,-0.02,0.20,-0.96,
3.562,0.49,-1.39,-0.25,-0.02,0.20,-0.96,
3.562,0.49,-1.39,-0.25,-0.01,0.20,-0.93,
3.564,0.49,-1.39,-0.25,0.01,0.17,-0.89,
3.568,-0.19,-0.99,0.82,0.01,0.17,-0.89,
3.569,-0.19,-0.99,0.82,0.04,0.14,-0.87,
3.572,-0.19,-0.99,0.82,0.07,0.10,-0.86,
3.572,0.79,-1.00,1.05,0.07,0.10,-0.86,
3.573,0.79,-1.00,1.05,0.11,0.06,-0.87,
3.573,0.79,-1.00,1.05,0.13,0.03,-0.90,
3.578,2.57,-0.72,0.43,0.13,0.03,-0.90,
3.578,2.57,-0.72,0.43,0.12,0.01,-0.95,
3.579,2.57,-0.72,0.43,0.10,0.04,-0.99,
3.582,1.34,-0.53,-0.03,0.10,0.04,-0.99,
3.583,1.34,-0.53,-0.03,0.09,0.07,-1.00,
3.583,1.34,-0.53,-0.03,0.10,0.09,-0.99,
3.588,-0.51,-0.67,0.94,0.10,0.09,-0.99,
3.589,-0.51,-0.67,0.94,0.13,0.07,-0.99,
3.589,-0.51,-0.67,0.94,0.18,0.02,-0.99,
3.592,-1.32,-0.62,1.55,0.18,0.02,-0.99,
3.593,-1.32,-0.62,1.55,0.22,-0.06,-0.99,
3.593,-1.32,-0.62,1.55,0.25,-0.15,-1.00,
3.596,-1.65,-0.10,0.66,0.25,-0.15,-1.00,
3.597,-1.65,-0.10,0.66,0.25,-0.20,-1.00,
3.601,-1.65,-0.10,0.66,0.25,-0.18,-0.99,
3.602,-1.41,0.53,-1.25,0.25,-0.18,-0.99,
3.603,-1.41,0.53,-1.25,0.23,-0.09,-0.97,
3.606,-1.41,0.53,-1.25,0.20,0.02,-0.95,
3.606,-0.28,0.64,-2.11,0.20,0.02,-0.95,
3.607,-0.28,0.64,-2.11,0.17,0.12,-0.94,
3.609,-0.28,0.64,-2.11,0.14,0.20,-0.93,
3.612,1.40,0.31,-1.86,0.14,0.20,-0.93,
3.612,1.40,0.31,-1.86,0.10,0.26,-0.94,
3.613,1.40,0.31,-1.86,0.07,0.34,-0.98,
3.622,4.02,-0.20,-2.15,0.07,0.34,-0.98,
3.623,4.02,-0.20,-2.15,0.05,0.61,-1.03,
3.623,4.02,-0.20,-2.15,0.04,0.91,-1.09,
3.624,5.90,-0.35,-0.71,0.04,0.91,-1.09,
3.624,5.90,-0.35,-0.71,0.04,0.97,-1.17,
3.625,5.90,-0.35,-0.71,0.06,0.87,-1.28,
3.626,5.05,-0.51,1.13,0.06,0.87,-1.28,
3.627,5.05,-0.51,1.13,0.08,0.79,-1.38,
3.629,5.05,-0.51,1.13,0.09,0.79,-1.45,
3.632,4.19,-0.29,1.10,0.09,0.79,-1.45,
3.633,4.19,-0.29,1.10,0.09,0.77,-1.52,
3.637,4.19,-0.29,1.10,0.08,0.71,-1.56,
3.638,1.38,-0.19,1.20,0.08,0.71,-1.56,
3.639,1.38,-0.19,1.20,0.07,0.66,-1.55,
3.639,1.38,-0.19,1.20,0.07,0.61,-1.50,
3.642,1.38,-0.19,1.20,0.08,0.55,-1.43,
3.643,-2.32,-0.47,1.51,0.08,0.55,-1.43,
3.643,-2.32,-0.47,1.51,0.11,0.49,-1.36,
3.646,-3.61,-0.46,2.43,0.11,0.49,-1.36,
3.647,-3.61,-0.46,2.43,0.17,0.43,-1.31,
3.652,-3.61,-0.46,2.43,0.23,0.38,-1.25,
3.653,-4.14,-0.07,1.95,0.23,0.38,-1.25,
3.653,-4.14,-0.07,1.95,0.27,0.36,-1.20,
3.654,-4.14,-0.07,1.95,0.32,0.36,-1.14,
3.658,-4.19,0.30,0.95,0.32,0.36,-1.14,
3.659,-4.19,0.30,0.95,0.36,0.37,-1.07,
3.659,-4.19,0.30,0.95,0.39,0.38,-0.99,
3.664,-4.70,0.32,0.22,0.39,0.38,-0.99,
3.664,-4.70,0.32,0.22,0.42,0.40,-0.91,
3.665,-4.70,0.32,0.22,0.43,0.42,-0.82,
3.669,-4.10,-0.05,-0.38,0.43,0.42,-0.82,
3.685,-4.10,-0.05,-0.38,0.43,0.42,-0.76,
3.686,-4.10,-0.05,-0.38,0.42,0.41,-0.74,
3.686,-1.64,-0.24,-0.68,0.42,0.41,-0.74,
3.686,-1.64,-0.24,-0.68,0.41,0.41,-0.75,
3.687,-1.64,-0.24,-0.68,0.38,0.41,-0.77,
3.687,-0.31,0.11,-0.90,0.38,0.41,-0.77,
3.688,-0.31,0.11,-0.90,0.36,0.40,-0.78,
3.688,-0.31,0.11,-0.90,0.36,0.36,-0.78,
3.689,-0.68,0.27,-0.50,0.36,0.36,-0.78,
3.689,-0.68,0.27,-0.50,0.36,0.32,-0.75,
3.69,-0.68,0.27,-0.50,0.36,0.28,-0.71,
3.69,-1.30,-0.04,-0.71,0.36,0.28,-0.71,
3.69,-1.30,-0.04,-0.71,0.35,0.24,-0.66,
3.691,-1.30,-0.04,-0.71,0.35,0.21,-0.62,
3.691,-0.97,-0.56,-0.86,0.35,0.21,-0.62,
3.692,-0.97,-0.56,-0.86,0.34,0.17,-0.60,
3.694,-0.97,-0.56,-0.86,0.34,0.13,-0.60,
3.697,-0.69,-0.87,-0.92,0.34,0.13,-0.60,
3.698,-0.69,-0.87,-0.92,0.34,0.10,-0.59,
3.7,-0.69,-0.87,-0.92,0.33,0.07,-0.58,
3.702,-0.75,-1.08,-1.02,0.33,0.07,-0.58,
3.703,-0.75,-1.08,-1.02,0.32,0.04,-0.57,
3.704,-0.75,-1.08,-1.02,0.32,0.02,-0.55,
3.706,-0.74,-1.01,-1.23,0.32,0.02,-0.55,
3.706,-0.74,-1.01,-1.23,0.31,0.01,-0.54,
3.71,-0.74,-1.01,-1.23,0.31,0.02,-0.52,
3.713,-0.75,-0.93,-1.44,0.31,0.02,-0.52,
3.713,-0.75,-0.93,-1.44,0.30,0.03,-0.50,
3.714,-0.75,-0.93,-1.44,0.29,0.05,-0.48,
3.722,-0.72,-0.85,-1.62,0.29,0.05,-0.48,
3.723,-0.72,-0.85,-1.62,0.28,0.09,-0.46,
3.723,-0.72,-0.85,-1.62,0.27,0.13,-0.43,
3.724,-0.96,-0.73,-1.72,0.27,0.13,-0.43,
3.724,-0.96,-0.73,-1.72,0.26,0.18,-0.40,
3.725,-0.96,-0.73,-1.72,0.25,0.23,-0.37,
3.726,-1.26,-0.56,-1.62,0.25,0.23,-0.37,
3.727,-1.26,-0.56,-1.62,0.23,0.28,-0.34,
3.734,-1.26,-0.56,-1.62,0.22,0.32,-0.31,
3.734,-1.62,-0.35,-1.41,0.22,0.32,-0.31,
3.734,-1.62,-0.35,-1.41,0.20,0.36,-0.27,
3.735,-1.62,-0.35,-1.41,0.19,0.38,-0.24,
3.739,-1.80,-0.08,-1.02,0.19,0.38,-0.24,
3.74,-1.80,-0.08,-1.02,0.17,0.39,-0.21,
3.74,-1.80,-0.08,-1.02,0.15,0.39,-0.19,
3.742,-1.85,0.17,-0.64,0.15,0.39,-0.19,
3.743,-1.85,0.17,-0.64,0.13,0.38,-0.16,
3.744,-1.85,0.17,-0.64,0.11,0.36,-0.13,
3.748,-1.71,0.46,-0.51,0.11,0.36,-0.13,
3.748,-1.71,0.46,-0.51,0.08,0.34,-0.10,
3.749,-1.71,0.46,-0.51,0.05,0.31,-0.08,
3.752,-1.63,0.63,-0.37,0.05,0.31,-0.08,
3.752,-1.63,0.63,-0.37,0.02,0.28,-0.05,
3.754,-1.63,0.63,-0.37,0.01,0.24,-0.02,
3.757,-1.17,0.56,-0.53,0.01,0.24,-0.02,
3.758,-1.17,0.56,-0.53,-0.02,0.23,-0.01,
3.758,-1.17,0.56,-0.53,-0.05,0.21,0.00,
3.764,-1.26,0.55,-0.43,-0.05,0.21,0.00,
3.765,-1.26,0.55,-0.43,-0.07,0.17,0.02,
3.765,-1.26,0.55,-0.43,-0.08,0.13,0.03,
3.769,-1.03,0.66,-0.21,-0.08,0.13,0.03,
3.77,-1.03,0.66,-0.21,-0.09,0.10,0.04,
3.771,-1.03,0.66,-0.21,-0.10,0.07,0.05,
3.772,-0.61,0.71,-0.38,-0.10,0.07,0.05,
3.772,-0.61,0.71,-0.38,-0.11,0.05,0.05,
3.776,-0.61,0.71,-0.38,-0.12,0.03,0.06,
3.776,-0.27,0.71,-0.40,-0.12,0.03,0.06,
3.777,-0.27,0.71,-0.40,-0.13,0.01,0.06,
3.78,-0.27,0.71,-0.40,-0.14,-0.01,0.06,
3.783,-0.10,0.56,-0.26,-0.14,-0.01,0.06,
3.784,-0.10,0.56,-0.26,-0.14,-0.02,0.06,
3.784,-0.10,0.56,-0.26,-0.14,-0.03,0.06,
3.788,0.00,0.38,-0.17,-0.14,-0.03,0.06,
3.79,0.00,0.38,-0.17,-0.13,-0.03,0.07,
3.79,0.00,0.38,-0.17,-0.13,-0.02,0.07,
3.792,0.11,0.22,-0.11,-0.13,-0.02,0.07,
3.793,0.11,0.22,-0.11,-0.12,-0.02,0.07,
3.793,0.11,0.22,-0.11,-0.12,-0.02,0.07,
3.798,0.11,0.22,-0.11,-0.11,-0.02,0.08,
3.798,0.14,0.05,0.04,-0.11,-0.02,0.08,
3.799,0.14,0.05,0.04,-0.11,-0.02,0.08,
3.803,0.32,-0.06,0.11,-0.11,-0.02,0.08,
3.804,0.32,-0.06,0.11,-0.11,-0.02,0.08,
3.805,0.32,-0.06,0.11,-0.10,-0.02,0.07,
3.807,0.35,-0.20,0.21,-0.10,-0.02,0.07,
3.808,0.35,-0.20,0.21,-0.10,-0.02,0.07,
3.809,0.35,-0.20,0.21,-0.09,-0.02,0.07,
3.811,0.34,-0.12,0.24,-0.09,-0.02,0.07,
3.812,0.34,-0.12,0.24,-0.09,-0.01,0.06,
3.814,0.34,-0.12,0.24,-0.08,-0.00,0.06,
3.821,0.41,0.00,0.26,-0.08,-0.00,0.06,
3.822,0.41,0.00,0.26,-0.08,0.00,0.05,
3.822,0.41,0.00,0.26,-0.08,0.00,0.05,
3.823,0.50,-0.01,0.42,-0.08,0.00,0.05,
3.823,0.50,-0.01,0.42,-0.08,-0.01,0.04,
3.824,0.50,-0.01,0.42,-0.08,-0.02,0.04,
3.828,0.51,-0.14,0.44,-0.08,-0.02,0.04,
3.829,0.51,-0.14,0.44,-0.08,-0.03,0.04,
3.83,0.51,-0.14,0.44,-0.09,-0.04,0.04,
3.833,0.41,-0.43,0.36,-0.09,-0.04,0.04,
3.833,0.41,-0.43,0.36,-0.10,-0.06,0.04,
3.846,0.41,-0.43,0.36,-0.10,-0.09,0.03,
3.847,0.55,-0.70,0.51,-0.10,-0.09,0.03,
3.847,0.55,-0.70,0.51,-0.10,-0.11,0.00,
3.848,0.55,-0.70,0.51,-0.09,-0.14,-0.03,
3.848,0.52,-0.46,0.35,-0.09,-0.14,-0.03,
3.849,0.52,-0.46,0.35,-0.09,-0.15,-0.05,
3.849,0.52,-0.46,0.35,-0.08,-0.15,-0.06,
3.85,0.13,0.13,0.03,-0.08,-0.15,-0.06,
3.85,0.13,0.13,0.03,-0.08,-0.14,-0.06,
3.851,0.13,0.13,0.03,-0.07,-0.13,-0.05,
3.857,-0.02,0.28,-0.10,-0.07,-0.13,-0.05,
3.859,-0.02,0.28,-0.10,-0.07,-0.12,-0.05,
3.859,-0.02,0.28,-0.10,-0.07,-0.11,-0.05,
3.86,-0.18,0.16,-0.13,-0.07,-0.11,-0.05,
3.861,-0.18,0.16,-0.13,-0.06,-0.09,-0.04,
3.861,-0.18,0.16,-0.13,-0.06,-0.08,-0.03,
3.862,-0.28,-0.29,-0.07,-0.06,-0.08,-0.03,
3.863,-0.28,-0.29,-0.07,-0.05,-0.07,-0.02,
3.865,-0.28,-0.29,-0.07,-0.04,-0.05,-0.02,
3.87,0.29,-0.33,0.11,-0.04,-0.05,-0.02,
3.871,0.29,-0.33,0.11,-0.03,-0.03,-0.03,
3.871,0.29,-0.33,0.11,-0.02,-0.00,-0.02,
3.871,0.03,-0.37,0.07,-0.02,-0.00,-0.02,
3.873,0.03,-0.37,0.07,-0.00,0.03,-0.01,
3.875,0.03,-0.37,0.07,0.01,0.06,-0.04,
3.876,1.37,-0.10,0.26,0.01,0.06,-0.04,
3.877,1.37,-0.10,0.26,0.03,0.08,-0.06,
3.878,1.37,-0.10,0.26,0.04,0.10,-0.07,
3.883,1.37,-0.10,0.26,0.06,0.12,-0.09,
3.884,1.32,0.16,0.28,0.06,0.12,-0.09,
3.884,1.32,0.16,0.28,0.06,0.13,-0.10,
3.887,0.88,0.34,0.18,0.06,0.13,-0.10,
3.887,0.88,0.34,0.18,0.07,0.14,-0.10,
3.889,0.88,0.34,0.18,0.07,0.15,-0.07,
3.892,-1.68,-0.35,-0.08,0.07,0.15,-0.07,
3.892,-1.68,-0.35,-0.08,0.06,0.15,-0.02,
3.894,-1.68,-0.35,-0.08,0.05,0.16,0.02,
3.898,-2.01,-0.57,-0.19,0.05,0.16,0.02,
3.899,-2.01,-0.57,-0.19,0.04,0.15,0.03,
3.899,-2.01,-0.57,-0.19,0.02,0.13,0.03,
3.904,-0.68,-0.09,0.04,0.02,0.13,0.03,
3.906,-0.68,-0.09,0.04,-0.00,0.10,0.02,
3.907,0.71,0.44,0.05,-0.00,0.10,0.02,
3.908,0.71,0.44,0.05,-0.03,0.08,0.00,
3.909,0.71,0.44,0.05,-0.05,0.06,-0.01,
3.909,0.71,0.44,0.05,-0.06,0.05,-0.02,
3.914,0.84,0.60,0.08,-0.06,0.05,-0.02,
3.914,0.84,0.60,0.08,-0.07,0.03,-0.02,
3.915,0.84,0.60,0.08,-0.08,0.03,-0.03,
3.919,0.65,0.54,0.04,-0.08,0.03,-0.03,
3.92,0.65,0.54,0.04,-0.08,0.04,-0.04,
3.921,0.65,0.54,0.04,-0.07,0.04,-0.04,
3.923,0.65,0.54,0.04,-0.06,0.05,-0.05,
3.924,0.16,0.16,0.13,-0.06,0.05,-0.05,
3.924,0.16,0.16,0.13,-0.04,0.07,-0.04,
3.928,0.33,-0.11,0.13,-0.04,0.07,-0.04,
3.929,0.33,-0.11,0.13,-0.03,0.10,-0.06,
3.93,0.33,-0.11,0.13,0.00,0.14,-0.08,
3.932,1.86,-0.04,0.33,0.00,0.14,-0.08,
3.933,1.86,-0.04,0.33,0.03,0.19,-0.13,
3.938,1.86,-0.04,0.33,0.06,0.24,-0.17,
3.939,2.02,0.05,0.48,0.06,0.24,-0.17,
3.94,2.02,0.05,0.48,0.09,0.28,-0.19,
3.94,2.02,0.05,0.48,0.11,0.31,-0.20,
3.944,1.71,-0.16,0.52,0.11,0.31,-0.20,
3.944,1.71,-0.16,0.52,0.13,0.33,-0.21,
3.945,1.71,-0.16,0.52,0.14,0.34,-0.23,
3.947,1.49,-0.26,0.45,0.14,0.34,-0.23,
3.948,1.49,-0.26,0.45,0.15,0.35,-0.24,
3.951,1.49,-0.26,0.45,0.16,0.35,-0.25,
3.952,0.82,-0.33,0.44,0.16,0.35,-0.25,
3.953,0.82,-0.33,0.44,0.17,0.35,-0.24,
3.954,0.82,-0.33,0.44,0.16,0.33,-0.20,
3.958,-1.88,-0.56,0.22,0.16,0.33,-0.20,
3.959,-1.88,-0.56,0.22,0.15,0.31,-0.14,
3.959,-1.88,-0.56,0.22,0.12,0.27,-0.06,
3.963,-1.34,-0.76,0.16,0.12,0.27,-0.06,
3.964,-1.34,-0.76,0.16,0.11,0.26,-0.09,
3.965,-1.34,-0.76,0.16,0.11,0.22,-0.12,
3.97,-1.34,-0.76,0.16,0.10,0.17,-0.14,
3.971,0.27,-0.08,0.59,0.10,0.17,-0.14,
3.971,0.27,-0.08,0.59,0.08,0.13,-0.15,
3.974,0.27,-0.08,0.59,0.07,0.09,-0.16,
3.974,0.61,0.57,0.56,0.07,0.09,-0.16,
3.975,0.61,0.57,0.56,0.06,0.05,-0.18,
3.978,0.87,0.91,0.46,0.06,0.05,-0.18,
3.978,0.87,0.91,0.46,0.05,0.02,-0.20,
3.982,0.87,0.91,0.46,0.05,-0.01,-0.21,
3.982,0.87,0.91,0.46,0.05,-0.02,-0.23,
3.983,0.76,0.88,0.34,0.05,-0.02,-0.23,
3.985,0.76,0.88,0.34,0.07,-0.02,-0.26,
3.989,0.62,0.60,0.30,0.07,-0.02,-0.26,
3.99,0.62,0.60,0.30,0.08,-0.02,-0.25,
3.99,0.62,0.60,0.30,0.10,0.00,-0.26,
3.993,0.62,0.60,0.30,0.12,0.02,-0.26,
3.994,0.83,0.29,0.15,0.12,0.02,-0.26,
3.994,0.83,0.29,0.15,0.14,0.05,-0.26,
3.999,0.24,0.11,0.03,0.14,0.05,-0.26,
4.004,0.24,0.11,0.03,0.15,0.07,-0.25,
4.005,0.24,0.11,0.03,0.16,0.09,-0.21,
4.019,0.24,0.11,0.03,0.17,0.12,-0.19,
4.02,-0.45,-0.17,-0.15,0.17,0.12,-0.19,
4.02,-0.45,-0.17,-0.15,0.18,0.13,-0.18,
4.021,0.16,-0.27,-0.02,0.18,0.13,-0.18,
4.022,0.16,-0.27,-0.02,0.18,0.14,-0.18,
4.023,0.16,-0.27,-0.02,0.19,0.15,-0.18,
4.023,-0.63,-0.40,0.05,0.19,0.15,-0.18,
4.024,-0.63,-0.40,0.05,0.17,0.11,-0.13,
4.025,-0.63,-0.40,0.05,0.16,0.11,-0.09,
4.026,-0.29,-0.83,0.13,0.16,0.11,-0.09,
4.026,-0.29,-0.83,0.13,0.16,0.11,-0.09,
4.027,-0.29,-0.83,0.13,0.17,0.13,-0.10,
4.028,0.39,-0.59,0.28,0.17,0.13,-0.10,
4.028,0.39,-0.59,0.28,0.18,0.15,-0.10,
4.031,0.39,-0.59,0.28,0.19,0.17,-0.09,
4.032,-0.09,-0.47,0.21,0.19,0.17,-0.09,
4.032,-0.09,-0.47,0.21,0.19,0.17,-0.07,
4.033,-0.09,-0.47,0.21,0.20,0.19,-0.06,
4.033,-0.55,-0.65,0.18,0.20,0.19,-0.06,
4.034,-0.55,-0.65,0.18,0.21,0.22,-0.04,
4.034,-0.55,-0.65,0.18,0.23,0.25,-0.02,
4.04,-1.19,-0.62,0.04,0.23,0.25,-0.02,
4.04,-1.19,-0.62,0.04,0.24,0.29,0.00,
4.041,-1.19,-0.62,0.04,0.25,0.35,0.03,
4.043,-1.82,-0.56,-0.15,0.25,0.35,0.03,
4.044,-1.82,-0.56,-0.15,0.27,0.42,0.06,
4.045,-1.82,-0.56,-0.15,0.29,0.49,0.11,
4.05,-3.04,-0.55,-0.37,0.29,0.49,0.11,
4.051,-3.04,-0.55,-0.37,0.31,0.57,0.17,
4.051,-3.04,-0.55,-0.37,0.32,0.66,0.24,
4.055,-4.89,-0.52,-0.72,0.32,0.66,0.24,
4.056,-4.89,-0.52,-0.72,0.34,0.77,0.32,
4.057,-4.89,-0.52,-0.72,0.36,0.86,0.43,
4.059,-7.46,-0.39,-0.83,0.36,0.86,0.43,
4.06,-7.46,-0.39,-0.83,0.38,0.96,0.54,
4.06,-7.46,-0.39,-0.83,0.39,1.01,0.67,
4.063,-9.02,0.02,-0.70,0.39,1.01,0.67,
4.063,-9.02,0.02,-0.70,0.38,0.99,0.82,
4.067,-9.02,0.02,-0.70,0.33,0.90,0.93,
4.069,-6.28,0.34,-0.28,0.33,0.90,0.93,
4.07,-6.28,0.34,-0.28,0.27,0.73,0.99,
4.07,-6.28,0.34,-0.28,0.19,0.47,0.99,
4.074,-0.34,0.91,1.06,0.19,0.47,0.99,
4.074,-0.34,0.91,1.06,0.12,0.16,0.92,
4.075,-0.34,0.91,1.06,0.06,-0.17,0.82,
4.079,4.90,1.59,2.50,0.06,-0.17,0.82,
4.079,4.90,1.59,2.50,0.04,-0.47,0.69,
4.08,4.90,1.59,2.50,0.03,-0.72,0.55,
4.082,7.44,1.92,2.21,0.03,-0.72,0.55,
4.083,7.44,1.92,2.21,0.02,-0.90,0.42,
4.088,7.44,1.92,2.21,0.01,-0.98,0.31,
4.089,7.97,1.27,0.44,0.01,-0.98,0.31,
4.09,7.97,1.27,0.44,-0.00,-0.97,0.20,
4.091,7.97,1.27,0.44,-0.03,-0.91,0.09,
4.094,7.05,0.17,-1.29,-0.03,-0.91,0.09,
4.094,7.05,0.17,-1.29,-0.06,-0.78,0.02,
4.095,7.05,0.17,-1.29,-0.08,-0.58,-0.02,
4.099,3.78,0.10,-2.11,-0.08,-0.58,-0.02,
4.1,3.78,0.10,-2.11,-0.09,-0.35,-0.04,
4.1,3.78,0.10,-2.11,-0.09,-0.13,-0.04,
4.104,0.79,-0.23,-1.71,-0.09,-0.13,-0.04,
4.105,0.79,-0.23,-1.71,-0.08,0.07,-0.02,
4.106,0.79,-0.23,-1.71,-0.05,0.22,-0.03,
4.108,-0.33,-0.51,-0.32,-0.05,0.22,-0.03,
4.109,-0.33,-0.51,-0.32,-0.03,0.30,-0.01,
4.11,-0.33,-0.51,-0.32,-0.00,0.34,0.02,
4.113,-1.48,-0.75,0.75,-0.00,0.34,0.02,
4.114,-1.48,-0.75,0.75,0.01,0.34,0.03,
4.115,-1.48,-0.75,0.75,0.02,0.31,0.07,
4.123,-2.66,-0.74,1.18,0.02,0.31,0.07,
4.124,-2.66,-0.74,1.18,0.02,0.25,0.10,
4.125,-2.66,-0.74,1.18,0.02,0.17,0.14,
4.125,-3.16,-0.64,1.45,0.02,0.17,0.14,
4.126,-3.16,-0.64,1.45,0.01,0.08,0.18,
4.126,-3.16,-0.64,1.45,-0.00,-0.04,0.20,
4.128,-3.43,-0.46,1.50,-0.00,-0.04,0.20,
4.129,-3.43,-0.46,1.50,-0.02,-0.18,0.25,
4.13,-3.43,-0.46,1.50,-0.04,-0.33,0.29,
4.138,-2.99,-0.61,1.69,-0.04,-0.33,0.29,
4.139,-2.99,-0.61,1.69,-0.05,-0.51,0.32,
4.139,-2.99,-0.61,1.69,-0.05,-0.70,0.33,
4.14,-1.87,-0.65,1.88,-0.05,-0.70,0.33,
4.14,-1.87,-0.65,1.88,-0.05,-0.91,0.34,
4.14,-1.87,-0.65,1.88,-0.04,-1.11,0.36,
4.144,-1.34,-0.61,1.28,-0.04,-1.11,0.36,
4.144,-1.34,-0.61,1.28,-0.03,-1.29,0.37,
4.146,-1.34,-0.61,1.28,-0.02,-1.45,0.38,
4.147,-0.39,-0.82,0.15,-0.02,-1.45,0.38,
4.147,-0.39,-0.82,0.15,-0.03,-1.59,0.39,
4.151,-0.39,-0.82,0.15,-0.04,-1.68,0.38,
4.154,0.60,-1.57,-1.67,-0.04,-1.68,0.38,
4.155,0.60,-1.57,-1.67,-0.07,-1.72,0.37,
4.155,0.60,-1.57,-1.67,-0.11,-1.70,0.36,
4.158,0.87,-1.87,-3.63,-0.11,-1.70,0.36,
4.159,0.87,-1.87,-3.63,-0.16,-1.65,0.34,
4.161,0.87,-1.87,-3.63,-0.23,-1.57,0.33,
4.163,0.94,-1.71,-4.67,-0.23,-1.57,0.33,
4.163,0.94,-1.71,-4.67,-0.30,-1.52,0.33,
4.166,0.94,-1.71,-4.67,-0.33,-1.48,0.30,
4.169,2.29,-0.24,-3.42,-0.33,-1.48,0.30,
4.182,2.29,-0.24,-3.42,-0.35,-1.45,0.24,
4.182,2.29,-0.24,-3.42,-0.40,-1.55,0.15,
4.183,2.82,1.22,-1.65,-0.40,-1.55,0.15,
4.184,2.82,1.22,-1.65,-0.41,-1.68,0.09,
4.184,2.82,1.22,-1.65,-0.39,-1.58,0.02,
4.185,1.79,1.40,-3.91,-0.39,-1.58,0.02,
4.185,1.79,1.40,-3.91,-0.44,-1.37,0.01,
4.185,1.79,1.40,-3.91,-0.52,-1.09,0.10,
4.186,-1.91,0.25,-7.08,-0.52,-1.09,0.10,
4.189,-1.91,0.25,-7.08,-0.60,-0.76,0.24,
4.189,-1.91,0.25,-7.08,-0.67,-0.41,0.37,
4.19,-3.12,-1.16,-6.15,-0.67,-0.41,0.37,
4.19,-3.12,-1.16,-6.15,-0.69,-0.13,0.45,
4.191,-3.12,-1.16,-6.15,-0.70,0.06,0.48,
4.192,-2.53,-1.61,-3.48,-0.70,0.06,0.48,
4.193,-2.53,-1.61,-3.48,-0.69,0.16,0.49,
4.196,-2.53,-1.61,-3.48,-0.69,0.20,0.51,
4.201,-2.53,-1.61,-3.48,-0.71,0.21,0.53,
4.202,-2.53,-1.61,-3.48,-0.73,0.22,0.57,
4.202,-2.53,-1.61,-3.48,-0.77,0.22,0.61,
4.203,-2.92,-1.38,-2.40,-0.77,0.22,0.61,
4.205,-2.98,-0.91,-2.22,-0.77,0.22,0.61,
4.206,-2.98,-0.91,-2.22,-0.82,0.22,0.66,
4.208,-2.78,-0.61,-2.25,-0.82,0.22,0.66,
4.208,-2.78,-0.61,-2.25,-0.88,0.21,0.70,
4.21,-2.78,-0.61,-2.25,-0.94,0.19,0.75,
4.214,-2.36,-0.27,-1.97,-0.94,0.19,0.75,
4.215,-2.36,-0.27,-1.97,-1.01,0.15,0.79,
4.215,-2.36,-0.27,-1.97,-1.07,0.08,0.81,
4.219,-1.41,0.16,-1.29,-1.07,0.08,0.81,
4.22,-1.41,0.16,-1.29,-1.13,-0.02,0.82,
4.22,-1.41,0.16,-1.29,-1.18,-0.12,0.83,
4.224,-1.22,0.57,-1.10,-1.18,-0.12,0.83,
4.224,-1.22,0.57,-1.10,-1.24,-0.23,0.85,
4.225,-1.22,0.57,-1.10,-1.30,-0.33,0.87,
4.228,-1.35,0.91,-1.25,-1.30,-0.33,0.87,
4.229,-1.35,0.91,-1.25,-1.36,-0.44,0.89,
4.23,-1.35,0.91,-1.25,-1.42,-0.54,0.92,
4.234,-1.26,1.12,-1.33,-1.42,-0.54,0.92,
4.235,-1.26,1.12,-1.33,-1.48,-0.64,0.94,
4.235,-1.26,1.12,-1.33,-1.54,-0.74,0.97,
4.239,-0.94,1.07,-1.00,-1.54,-0.74,0.97,
4.24,-0.94,1.07,-1.00,-1.59,-0.84,0.99,
4.24,-0.94,1.07,-1.00,-1.64,-0.94,1.00,
4.243,-0.51,0.94,-0.85,-1.64,-0.94,1.00,
4.244,-0.51,0.94,-0.85,-1.69,-1.03,1.00,
4.246,-0.51,0.94,-0.85,-1.73,-1.11,1.01,
4.248,-0.10,0.79,-1.00,-1.73,-1.11,1.01,
4.249,-0.10,0.79,-1.00,-1.77,-1.18,1.01,
4.251,-0.10,0.79,-1.00,-1.80,-1.23,1.00,
4.253,0.25,0.59,-1.07,-1.80,-1.23,1.00,
4.253,0.25,0.59,-1.07,-1.83,-1.28,1.00,
4.256,0.25,0.59,-1.07,-1.85,-1.33,0.99,
4.259,0.37,0.46,-0.96,-1.85,-1.33,0.99,
4.26,0.37,0.46,-0.96,-1.87,-1.37,0.99,
4.26,0.37,0.46,-0.96,-1.88,-1.42,0.99,
4.264,0.19,0.45,-0.69,-1.88,-1.42,0.99,
4.265,0.19,0.45,-0.69,-1.89,-1.47,1.00,
4.265,0.19,0.45,-0.69,-1.89,-1.52,1.02,
4.269,-0.09,0.42,-0.18,-1.89,-1.52,1.02,
4.27,-0.09,0.42,-0.18,-1.90,-1.58,1.05,
4.271,-0.09,0.42,-0.18,-1.89,-1.66,1.08,
4.274,0.01,0.32,0.17,-1.89,-1.66,1.08,
4.275,0.01,0.32,0.17,-1.89,-1.72,1.10,
4.275,0.01,0.32,0.17,-1.89,-1.76,1.10,
4.279,0.33,0.65,0.04,-1.89,-1.76,1.10,
4.28,0.33,0.65,0.04,-1.88,-1.80,1.09,
4.28,0.33,0.65,0.04,-1.87,-1.85,1.08,
4.286,0.29,1.05,0.42,-1.87,-1.85,1.08,
4.287,0.29,1.05,0.42,-1.86,-1.89,1.08,
4.288,0.29,1.05,0.42,-1.84,-1.93,1.08,
4.288,0.28,1.33,0.78,-1.84,-1.93,1.08,
4.289,0.28,1.33,0.78,-1.81,-1.95,1.07,
4.29,0.28,1.33,0.78,-1.78,-1.97,1.07,
4.295,0.58,1.50,1.09,-1.78,-1.97,1.07,
4.295,0.58,1.50,1.09,-1.74,-1.96,1.06,
4.296,0.58,1.50,1.09,-1.69,-1.94,1.05,
4.299,1.15,1.82,1.22,-1.69,-1.94,1.05,
4.299,1.15,1.82,1.22,-1.64,-1.90,1.03,
4.3,1.15,1.82,1.22,-1.58,-1.84,0.99,
4.305,1.97,2.12,1.30,-1.58,-1.84,0.99,
4.306,1.97,2.12,1.30,-1.51,-1.76,0.96,
4.307,1.97,2.12,1.30,-1.45,-1.69,0.92,
4.31,2.55,2.04,1.56,-1.45,-1.69,0.92,
4.311,2.55,2.04,1.56,-1.37,-1.61,0.89,
4.312,2.55,2.04,1.56,-1.30,-1.52,0.86,
4.314,2.91,1.68,1.26,-1.30,-1.52,0.86,
4.315,2.91,1.68,1.26,-1.24,-1.41,0.83,
4.315,2.91,1.68,1.26,-1.17,-1.29,0.80,
4.32,3.24,1.10,1.17,-1.17,-1.29,0.80,
4.321,3.24,1.10,1.17,-1.09,-1.17,0.77,
4.322,3.24,1.10,1.17,-1.01,-1.06,0.73,
4.324,3.75,0.21,1.95,-1.01,-1.06,0.73,
4.325,3.75,0.21,1.95,-0.97,-1.01,0.70,
4.325,3.75,0.21,1.95,-1.04,-1.05,0.66,
4.33,3.95,-1.40,3.23,-1.04,-1.05,0.66,
4.331,3.95,-1.40,3.23,-1.19,-1.22,0.59,
4.332,3.95,-1.40,3.23,-1.31,-1.47,0.51,
4.34,3.52,-2.44,5.87,-1.31,-1.47,0.51,
4.341,3.52,-2.44,5.87,-1.32,-1.68,0.43,
4.354,3.52,-2.44,5.87,-1.20,-1.80,0.37,
4.357,3.23,-2.76,5.20,-1.20,-1.80,0.37,
4.358,3.23,-2.76,5.20,-1.03,-1.80,0.32,
4.358,3.23,-2.76,5.20,-0.85,-1.71,0.27,
4.359,3.58,-3.00,2.32,-0.85,-1.71,0.27,
4.359,3.58,-3.00,2.32,-0.71,-1.56,0.21,
4.36,3.58,-3.00,2.32,-0.61,-1.39,0.14,
4.36,4.01,-3.12,0.63,-0.61,-1.39,0.14,
4.36,4.01,-3.12,0.63,-0.53,-1.25,0.07,
4.361,4.01,-3.12,0.63,-0.47,-1.14,0.01,
4.361,4.25,-2.94,0.61,-0.47,-1.14,0.01,
4.362,4.25,-2.94,0.61,-0.41,-1.04,-0.06,
4.362,4.25,-2.94,0.61,-0.33,-0.95,-0.13,
4.362,4.20,-2.48,0.91,-0.33,-0.95,-0.13,
4.363,4.20,-2.48,0.91,-0.24,-0.85,-0.20,
4.363,4.20,-2.48,0.91,-0.15,-0.76,-0.26,
4.364,3.80,-1.69,1.04,-0.15,-0.76,-0.26,
4.364,3.80,-1.69,1.04,-0.05,-0.67,-0.32,
4.367,3.80,-1.69,1.04,0.04,-0.59,-0.37,
4.368,3.29,-1.07,1.14,0.04,-0.59,-0.37,
4.369,3.29,-1.07,1.14,0.13,-0.54,-0.42,
4.371,3.29,-1.07,1.14,0.21,-0.49,-0.46,
4.373,2.59,-0.53,1.01,0.21,-0.49,-0.46,
4.373,2.59,-0.53,1.01,0.29,-0.46,-0.49,
4.375,2.59,-0.53,1.01,0.35,-0.44,-0.53,
4.378,2.06,-0.19,0.71,0.35,-0.44,-0.53,
4.379,2.06,-0.19,0.71,0.41,-0.41,-0.55,
4.381,2.06,-0.19,0.71,0.47,-0.39,-0.58,
4.383,1.51,0.03,0.53,0.47,-0.39,-0.58,
4.384,1.51,0.03,0.53,0.52,-0.37,-0.60,
4.386,1.51,0.03,0.53,0.57,-0.34,-0.62,
4.39,1.04,0.23,0.23,0.57,-0.34,-0.62,
4.39,1.04,0.23,0.23,0.62,-0.31,-0.63,
4.39,1.04,0.23,0.23,0.67,-0.29,-0.64,
4.394,0.65,0.47,0.32,0.67,-0.29,-0.64,
4.395,0.65,0.47,0.32,0.73,-0.28,-0.64,
4.395,0.65,0.47,0.32,0.78,-0.26,-0.65,
4.399,0.33,0.53,0.23,0.78,-0.26,-0.65,
4.4,0.33,0.53,0.23,0.84,-0.25,-0.65,
4.4,0.33,0.53,0.23,0.89,-0.21,-0.64,
4.405,-0.03,0.71,-0.05,0.89,-0.21,-0.64,
4.406,-0.03,0.71,-0.05,0.96,-0.16,-0.61,
4.406,-0.03,0.71,-0.05,1.04,-0.11,-0.59,
4.41,-0.04,0.79,-0.16,1.04,-0.11,-0.59,
4.41,-0.04,0.79,-0.16,1.10,-0.05,-0.57,
4.411,-0.04,0.79,-0.16,1.15,-0.01,-0.56,
4.414,0.02,0.61,-0.30,1.15,-0.01,-0.56,
4.414,0.02,0.61,-0.30,1.18,0.04,-0.57,
4.417,0.02,0.61,-0.30,1.19,0.08,-0.58,
4.418,-0.25,0.66,-0.29,1.19,0.08,-0.58,
4.419,-0.25,0.66,-0.29,1.19,0.10,-0.58,
4.422,-0.25,0.66,-0.29,1.17,0.10,-0.59,
4.423,-0.70,0.62,0.23,1.17,0.10,-0.59,
4.423,-0.70,0.62,0.23,1.15,0.09,-0.59,
4.426,-0.70,0.62,0.23,1.12,0.06,-0.59,
4.429,-1.25,0.53,0.71,1.12,0.06,-0.59,
4.43,-1.25,0.53,0.71,1.09,0.02,-0.58,
4.43,-1.25,0.53,0.71,1.04,-0.04,-0.57,
4.438,-1.78,0.42,1.23,1.04,-0.04,-0.57,
4.439,-1.78,0.42,1.23,1.00,-0.11,-0.56,
4.44,-1.78,0.42,1.23,0.95,-0.19,-0.53,
4.44,-2.25,0.34,1.68,0.95,-0.19,-0.53,
4.441,-2.25,0.34,1.68,0.90,-0.28,-0.51,
4.441,-2.25,0.34,1.68,0.85,-0.37,-0.48,
4.446,-2.68,0.26,1.77,0.85,-0.37,-0.48,
4.447,-2.68,0.26,1.77,0.79,-0.46,-0.45,
4.447,-2.68,0.26,1.77,0.74,-0.54,-0.41,
4.451,-3.15,0.24,1.47,0.74,-0.54,-0.41,
4.452,-3.15,0.24,1.47,0.68,-0.61,-0.37,
4.453,-3.15,0.24,1.47,0.62,-0.66,-0.32,
4.453,-3.57,0.36,0.77,0.62,-0.66,-0.32,
4.454,-3.57,0.36,0.77,0.56,-0.69,-0.27,
4.455,-3.57,0.36,0.77,0.51,-0.71,-0.21,
4.46,-3.79,0.50,0.05,0.51,-0.71,-0.21,
4.46,-3.79,0.50,0.05,0.46,-0.71,-0.15,
4.46,-3.79,0.50,0.05,0.43,-0.66,-0.09,
4.465,-3.54,0.55,-0.67,0.43,-0.66,-0.09,
4.465,-3.54,0.55,-0.67,0.41,-0.58,-0.04,
4.466,-3.54,0.55,-0.67,0.40,-0.47,-0.00,
4.47,-2.53,0.63,-1.86,0.40,-0.47,-0.00,
4.47,-2.53,0.63,-1.86,0.38,-0.33,0.03,
4.471,-2.53,0.63,-1.86,0.37,-0.21,0.04,
4.474,-1.54,0.92,-2.09,0.37,-0.21,0.04,
4.475,-1.54,0.92,-2.09,0.36,-0.09,0.04,
4.475,-1.54,0.92,-2.09,0.35,0.01,0.04,
4.48,-1.59,0.91,-2.17,0.35,0.01,0.04,
4.481,-1.59,0.91,-2.17,0.33,0.11,0.06,
4.481,-1.59,0.91,-2.17,0.32,0.20,0.07,
4.485,-1.87,0.64,-2.53,0.32,0.20,0.07,
4.486,-1.87,0.64,-2.53,0.29,0.28,0.09,
4.486,-1.87,0.64,-2.53,0.25,0.36,0.10,
4.493,-1.62,0.23,-3.20,0.25,0.36,0.10,
4.494,-1.62,0.23,-3.20,0.19,0.44,0.12,
4.495,-1.62,0.23,-3.20,0.13,0.51,0.13,
4.495,-0.79,0.07,-3.40,0.13,0.51,0.13,
4.495,-0.79,0.07,-3.40,0.06,0.56,0.14,
4.497,-0.79,0.07,-3.40,-0.02,0.56,0.14,
4.502,0.04,-0.13,-2.70,-0.02,0.56,0.14,
4.503,0.04,-0.13,-2.70,-0.09,0.52,0.14,
4.504,0.04,-0.13,-2.70,-0.16,0.44,0.13,
4.513,0.29,-0.53,-1.85,-0.16,0.44,0.13,
4.514,0.29,-0.53,-1.85,-0.23,0.31,0.12,
4.514,0.29,-0.53,-1.85,-0.28,0.17,0.12,
4.515,-0.07,-0.71,-1.37,-0.28,0.17,0.12,
4.515,-0.07,-0.71,-1.37,-0.32,0.03,0.11,
4.515,-0.07,-0.71,-1.37,-0.35,-0.11,0.11,
4.516,-0.12,-0.48,-1.34,-0.35,-0.11,0.11,
4.516,-0.12,-0.48,-1.34,-0.37,-0.22,0.10,
4.517,-0.12,-0.48,-1.34,-0.37,-0.31,0.11,
4.519,0.07,-0.35,-1.57,-0.37,-0.31,0.11,
4.52,0.07,-0.35,-1.57,-0.37,-0.39,0.10,
4.52,0.07,-0.35,-1.57,-0.36,-0.46,0.09,
4.524,0.26,-0.48,-1.86,-0.36,-0.46,0.09,
4.525,0.26,-0.48,-1.86,-0.34,-0.50,0.09,
4.527,0.26,-0.48,-1.86,-0.35,-0.48,0.07,
4.528,1.04,-0.48,-4.01,-0.35,-0.48,0.07,
4.529,1.04,-0.48,-4.01,-0.41,-0.37,0.03,
4.531,1.04,-0.48,-4.01,-0.54,-0.15,-0.04,
4.537,2.17,-0.47,-5.87,-0.54,-0.15,-0.04,
4.538,2.17,-0.47,-5.87,-0.69,0.07,-0.15,
4.538,2.17,-0.47,-5.87,-0.77,0.19,-0.24,
4.539,1.14,0.29,-0.33,-0.77,0.19,-0.24,
4.539,1.14,0.29,-0.33,-0.73,0.16,-0.25,
4.543,1.14,0.29,-0.33,-0.51,-0.09,-0.11,
4.544,-1.27,1.27,7.07,-0.51,-0.09,-0.11,
4.544,-1.27,1.27,7.07,-0.23,-0.35,0.07,
4.548,-1.27,1.27,7.07,-0.02,-0.43,0.16,
4.549,0.71,-0.26,2.07,-0.02,-0.43,0.16,
4.549,0.71,-0.26,2.07,0.09,-0.34,0.16,
4.551,0.71,-0.26,2.07,0.12,-0.15,0.09,
4.553,2.34,-1.40,-1.58,0.12,-0.15,0.09,
4.553,2.34,-1.40,-1.58,0.12,0.05,-0.00,
4.557,2.34,-1.40,-1.58,0.12,0.21,-0.07,
4.56,1.99,-1.38,-0.69,0.12,0.21,-0.07,
4.56,1.99,-1.38,-0.69,0.12,0.35,-0.12,
4.56,1.99,-1.38,-0.69,0.11,0.49,-0.15,
4.564,1.51,-0.88,0.68,0.11,0.49,-0.15,
4.565,1.51,-0.88,0.68,0.11,0.61,-0.17,
4.569,1.51,-0.88,0.68,0.14,0.66,-0.19,
4.57,0.89,0.15,3.69,0.14,0.66,-0.19,
4.57,0.89,0.15,3.69,0.21,0.63,-0.16,
4.572,0.89,0.15,3.69,0.30,0.55,-0.12,
4.573,1.05,0.92,5.35,0.30,0.55,-0.12,
4.574,1.05,0.92,5.35,0.40,0.49,-0.09,
4.576,1.05,0.92,5.35,0.48,0.48,-0.07,
4.58,1.50,0.48,4.29,0.48,0.48,-0.07,
4.581,1.50,0.48,4.29,0.54,0.48,-0.10,
4.581,1.50,0.48,4.29,0.57,0.52,-0.13,
4.586,1.15,-0.22,2.70,0.57,0.52,-0.13,
4.587,1.15,-0.22,2.70,0.57,0.58,-0.15,
4.587,1.15,-0.22,2.70,0.55,0.65,-0.19,
4.59,1.00,-0.92,1.96,0.55,0.65,-0.19,
4.591,1.00,-0.92,1.96,0.52,0.71,-0.23,
4.592,1.00,-0.92,1.96,0.48,0.72,-0.26,
4.595,0.72,-0.52,2.98,0.48,0.72,-0.26,
4.596,0.72,-0.52,2.98,0.46,0.65,-0.26,
4.596,0.72,-0.52,2.98,0.45,0.55,-0.27,
4.6,0.89,0.10,3.43,0.45,0.55,-0.27,
4.601,0.89,0.10,3.43,0.44,0.44,-0.28,
4.601,0.89,0.10,3.43,0.43,0.31,-0.29,
4.605,0.58,0.46,3.71,0.43,0.31,-0.29,
4.606,0.58,0.46,3.71,0.44,0.15,-0.28,
4.607,0.58,0.46,3.71,0.45,0.00,-0.27,
4.609,0.16,0.42,2.94,0.45,0.00,-0.27,
4.61,0.16,0.42,2.94,0.45,-0.13,-0.26,
4.611,0.16,0.42,2.94,0.44,-0.23,-0.25,
4.614,-0.05,0.37,1.39,0.44,-0.23,-0.25,
4.615,-0.05,0.37,1.39,0.43,-0.31,-0.24,
4.62,-0.05,0.37,1.39,0.41,-0.37,-0.24,
4.621,0.10,0.59,0.57,0.41,-0.37,-0.24,
4.621,0.10,0.59,0.57,0.40,-0.41,-0.24,
4.622,0.10,0.59,0.57,0.40,-0.44,-0.25,
4.624,0.28,0.72,0.25,0.40,-0.44,-0.25,
4.625,0.28,0.72,0.25,0.41,-0.46,-0.25,
4.627,0.28,0.72,0.25,0.42,-0.47,-0.26,
4.629,0.35,0.49,-0.09,0.42,-0.47,-0.26,
4.629,0.35,0.49,-0.09,0.43,-0.46,-0.27,
4.632,0.35,0.49,-0.09,0.45,-0.44,-0.28,
4.64,0.20,0.33,-0.67,0.45,-0.44,-0.28,
4.641,0.20,0.33,-0.67,0.45,-0.40,-0.29,
4.642,0.20,0.33,-0.67,0.45,-0.34,-0.30,
4.642,0.04,0.20,-1.17,0.45,-0.34,-0.30,
4.643,0.04,0.20,-1.17,0.45,-0.27,-0.30,
4.643,0.04,0.20,-1.17,0.44,-0.19,-0.30,
4.644,-0.25,0.61,-1.38,0.44,-0.19,-0.30,
4.646,-0.25,0.61,-1.38,0.43,-0.11,-0.28,
4.647,-0.25,0.61,-1.38,0.41,-0.01,-0.24,
4.65,-0.25,0.61,-1.38,0.40,0.06,-0.22,
4.651,-0.16,0.66,-1.42,0.40,0.06,-0.22,
4.651,-0.16,0.66,-1.42,0.38,0.12,-0.21,
4.657,0.12,1.06,-1.11,0.38,0.12,-0.21,
4.658,0.12,1.06,-1.11,0.36,0.18,-0.18,
4.658,0.12,1.06,-1.11,0.34,0.24,-0.14,
4.66,0.41,1.03,-1.03,0.34,0.24,-0.14,
4.66,0.41,1.03,-1.03,0.33,0.28,-0.13,
4.663,0.41,1.03,-1.03,0.30,0.30,-0.14,
4.664,0.75,-0.16,-0.75,0.30,0.30,-0.14,
4.664,0.75,-0.16,-0.75,0.28,0.30,-0.17,
4.666,0.75,-0.16,-0.75,0.26,0.31,-0.16,
4.669,0.50,0.73,-1.12,0.26,0.31,-0.16,
4.676,0.50,0.73,-1.12,0.23,0.34,-0.14,
4.677,0.50,0.73,-1.12,0.19,0.35,-0.14,
4.677,0.98,-0.44,-1.22,0.19,0.35,-0.14,
4.677,0.98,-0.44,-1.22,0.15,0.35,-0.18,
4.677,0.98,-0.44,-1.22,0.11,0.32,-0.23,
4.679,2.04,-0.98,-1.13,0.11,0.32,-0.23,
4.68,2.04,-0.98,-1.13,0.07,0.29,-0.30,
4.681,2.04,-0.98,-1.13,0.03,0.29,-0.33,
4.685,3.20,-0.66,-1.35,0.03,0.29,-0.33,
4.686,3.20,-0.66,-1.35,-0.01,0.29,-0.40,
4.686,3.20,-0.66,-1.35,-0.03,0.28,-0.52,
4.689,4.31,-2.04,-0.69,-0.03,0.28,-0.52,
4.69,4.31,-2.04,-0.69,-0.04,0.27,-0.63,
4.692,4.31,-2.04,-0.69,-0.03,0.24,-0.70,
4.694,3.28,-1.30,0.37,-0.03,0.24,-0.70,
4.695,3.28,-1.30,0.37,-0.01,0.19,-0.70,
4.697,3.28,-1.30,0.37,0.02,0.15,-0.75,
4.7,2.99,-2.31,0.21,0.02,0.15,-0.75,
4.7,2.99,-2.31,0.21,0.04,0.15,-0.81,
4.701,2.99,-2.31,0.21,0.04,0.21,-0.83,
4.706,1.45,-1.63,-1.07,0.04,0.21,-0.83,
4.706,1.45,-1.63,-1.07,0.04,0.29,-0.86,
4.706,1.45,-1.63,-1.07,0.06,0.34,-0.90,
4.711,0.21,-1.96,-0.49,0.06,0.34,-0.90,
4.712,0.21,-1.96,-0.49,0.08,0.39,-0.92,
4.712,0.21,-1.96,-0.49,0.11,0.43,-0.91,
4.715,-1.62,-0.86,0.10,0.11,0.43,-0.91,
4.716,-1.62,-0.86,0.10,0.14,0.46,-0.88,
4.717,-1.62,-0.86,0.10,0.18,0.46,-0.84,
4.724,-2.85,-0.85,0.52,0.18,0.46,-0.84,
4.725,-2.85,-0.85,0.52,0.21,0.46,-0.81,
4.725,-2.85,-0.85,0.52,0.23,0.46,-0.77,
4.725,-3.55,-0.43,0.51,0.23,0.46,-0.77,
4.726,-3.55,-0.43,0.51,0.25,0.46,-0.72,
4.726,-3.55,-0.43,0.51,0.27,0.47,-0.67,
4.731,-4.04,-0.07,0.40,0.27,0.47,-0.67,
4.732,-4.04,-0.07,0.40,0.27,0.49,-0.63,
4.732,-4.04,-0.07,0.40,0.27,0.53,-0.60,
4.737,-4.37,0.15,0.15,0.27,0.53,-0.60,
4.738,-4.37,0.15,0.15,0.26,0.55,-0.57,
4.738,-4.37,0.15,0.15,0.25,0.55,-0.54,
4.741,-4.66,0.18,1.00,0.25,0.55,-0.54,
4.742,-4.66,0.18,1.00,0.24,0.50,-0.49,
4.743,-4.66,0.18,1.00,0.23,0.42,-0.45,
4.747,-4.52,0.20,1.62,0.23,0.42,-0.45,
4.747,-4.52,0.20,1.62,0.22,0.32,-0.40,
4.748,-4.52,0.20,1.62,0.18,0.24,-0.32,
4.75,-3.64,-0.19,1.74,0.18,0.24,-0.32,
4.75,-3.64,-0.19,1.74,0.17,0.11,-0.30,
4.755,-3.64,-0.19,1.74,0.16,-0.04,-0.29,
4.756,-2.75,-0.90,2.12,0.16,-0.04,-0.29,
4.756,-2.75,-0.90,2.12,0.14,-0.18,-0.27,
4.757,-2.75,-0.90,2.12,0.13,-0.31,-0.25,
4.761,-2.06,-0.66,1.84,0.13,-0.31,-0.25,
4.761,-2.06,-0.66,1.84,0.13,-0.44,-0.24,
4.762,-2.06,-0.66,1.84,0.13,-0.54,-0.22,
4.765,-1.31,-0.43,1.29,0.13,-0.54,-0.22,
4.766,-1.31,-0.43,1.29,0.13,-0.64,-0.21,
4.767,-1.31,-0.43,1.29,0.14,-0.73,-0.20,
4.771,-0.44,-0.30,0.68,0.14,-0.73,-0.20,
4.772,-0.44,-0.30,0.68,0.15,-0.77,-0.21,
4.773,-0.44,-0.30,0.68,0.16,-0.81,-0.22,
4.774,0.03,-0.06,0.47,0.16,-0.81,-0.22,
4.774,0.03,-0.06,0.47,0.19,-0.85,-0.23,
4.778,0.03,-0.06,0.47,0.22,-0.90,-0.26,
4.781,-0.01,0.09,0.21,0.22,-0.90,-0.26,
4.781,-0.01,0.09,0.21,0.25,-0.90,-0.28,
4.782,-0.01,0.09,0.21,0.28,-0.86,-0.27,
4.787,-0.48,0.47,-0.65,0.28,-0.86,-0.27,
4.788,-0.48,0.47,-0.65,0.30,-0.82,-0.25,
4.789,-0.48,0.47,-0.65,0.34,-0.79,-0.25,
4.789,0.51,0.46,-0.19,0.34,-0.79,-0.25,
4.79,0.51,0.46,-0.19,0.37,-0.77,-0.25,
4.793,0.51,0.46,-0.19,0.39,-0.74,-0.25,
4.795,0.43,0.28,-0.59,0.39,-0.74,-0.25,
4.796,0.43,0.28,-0.59,0.39,-0.71,-0.24,
4.798,0.43,0.28,-0.59,0.39,-0.71,-0.21,
4.803,-0.10,-0.12,-0.68,0.39,-0.71,-0.21,
4.804,-0.10,-0.12,-0.68,0.37,-0.69,-0.19,
4.805,-0.10,-0.12,-0.68,0.37,-0.66,-0.17,
4.805,1.23,0.70,-0.97,0.37,-0.66,-0.17,
4.805,1.23,0.70,-0.97,0.34,-0.59,-0.16,
4.806,1.23,0.70,-0.97,0.33,-0.56,-0.17,
4.811,1.08,0.16,-0.99,0.33,-0.56,-0.17,
4.812,1.08,0.16,-0.99,0.28,-0.52,-0.15,
4.812,1.08,0.16,-0.99,0.26,-0.50,-0.16,
4.816,1.02,-0.22,-0.65,0.26,-0.50,-0.16,
4.816,1.02,-0.22,-0.65,0.22,-0.47,-0.16,
4.817,1.02,-0.22,-0.65,0.20,-0.45,-0.18,
4.822,0.72,-0.37,-0.61,0.20,-0.45,-0.18,
4.823,0.72,-0.37,-0.61,0.17,-0.41,-0.19,
4.824,0.72,-0.37,-0.61,0.14,-0.39,-0.20,
4.824,-0.06,-0.34,-0.60,0.14,-0.39,-0.20,
4.827,-0.06,-0.34,-0.60,0.11,-0.35,-0.20,
4.827,-0.06,-0.34,-0.60,0.09,-0.31,-0.21,
4.83,-0.92,-0.25,-0.62,0.09,-0.31,-0.21,
4.831,-0.92,-0.25,-0.62,0.06,-0.26,-0.21,
4.832,-0.92,-0.25,-0.62,0.04,-0.20,-0.20,
4.838,-1.76,-0.34,-0.48,0.04,-0.20,-0.20,
4.84,-1.76,-0.34,-0.48,0.04,-0.15,-0.21,
4.859,-1.76,-0.34,-0.48,0.04,-0.11,-0.22,
4.859,-2.78,-1.02,0.13,0.04,-0.11,-0.22,
4.86,-2.78,-1.02,0.13,0.05,-0.09,-0.24,
4.86,-3.73,-1.54,0.94,0.05,-0.09,-0.24,
4.86,-3.73,-1.54,0.94,0.09,-0.13,-0.27,
4.861,-3.73,-1.54,0.94,0.13,-0.16,-0.28,
4.861,-3.73,-1.54,0.94,0.17,-0.14,-0.29,
4.862,-0.73,0.30,-0.35,0.17,-0.14,-0.29,
4.862,-0.73,0.30,-0.35,0.20,-0.05,-0.31,
4.862,-0.73,0.30,-0.35,0.22,0.08,-0.34,
4.863,1.50,1.16,-1.77,0.22,0.08,-0.34,
4.863,1.50,1.16,-1.77,0.23,0.23,-0.37,
4.863,1.50,1.16,-1.77,0.23,0.36,-0.40,
4.864,0.75,0.69,-1.71,0.23,0.36,-0.40,
4.864,0.75,0.69,-1.71,0.24,0.44,-0.42,
4.864,0.75,0.69,-1.71,0.25,0.52,-0.43,
4.865,-0.36,0.51,-1.10,0.25,0.52,-0.43,
4.865,-0.36,0.51,-1.10,0.25,0.58,-0.42,
4.868,-0.36,0.51,-1.10,0.27,0.60,-0.40,
4.869,-0.36,0.51,-1.10,0.29,0.64,-0.43,
4.869,0.74,0.35,-0.15,0.29,0.64,-0.43,
4.873,0.74,0.35,-0.15,0.32,0.66,-0.46,
4.874,0.89,0.67,-0.15,0.32,0.66,-0.46,
4.874,0.89,0.67,-0.15,0.32,0.68,-0.46,
4.876,0.89,0.67,-0.15,0.33,0.67,-0.46,
4.881,-0.28,0.48,0.29,0.33,0.67,-0.46,
4.881,-0.28,0.48,0.29,0.33,0.63,-0.45,
4.881,-0.28,0.48,0.29,0.32,0.58,-0.42,
4.885,-0.48,0.69,0.12,0.32,0.58,-0.42,
4.886,-0.48,0.69,0.12,0.31,0.57,-0.42,
4.888,-0.48,0.69,0.12,0.31,0.55,-0.42,
4.891,0.59,1.08,0.08,0.31,0.55,-0.42,
4.891,0.59,1.08,0.08,0.29,0.54,-0.43,
4.893,0.59,1.08,0.08,0.28,0.49,-0.43,
4.897,0.35,0.60,0.63,0.28,0.49,-0.43,
4.897,0.35,0.60,0.63,0.28,0.43,-0.43,
4.898,0.35,0.60,0.63,0.26,0.36,-0.42,
4.9,0.42,0.34,0.65,0.26,0.36,-0.42,
4.901,0.42,0.34,0.65,0.25,0.31,-0.41,
4.903,0.42,0.34,0.65,0.24,0.27,-0.42,
4.906,0.96,0.36,0.91,0.24,0.27,-0.42,
4.907,0.96,0.36,0.91,0.23,0.19,-0.42,
4.908,0.96,0.36,0.91,0.22,0.11,-0.42,
4.911,0.15,0.24,0.90,0.22,0.11,-0.42,
4.912,0.15,0.24,0.90,0.21,0.03,-0.40,
4.912,0.15,0.24,0.90,0.19,-0.05,-0.37,
4.915,-1.59,0.29,0.61,0.19,-0.05,-0.37,
4.916,-1.59,0.29,0.61,0.16,-0.14,-0.31,
4.916,-1.59,0.29,0.61,0.11,-0.25,-0.21,
4.92,-6.10,0.42,0.07,0.11,-0.25,-0.21,
4.921,-6.10,0.42,0.07,0.06,-0.37,-0.08,
4.924,-6.10,0.42,0.07,-0.00,-0.46,0.06,
4.926,-5.53,0.77,-0.70,-0.00,-0.46,0.06,
4.926,-5.53,0.77,-0.70,-0.06,-0.51,0.14,
4.927,-5.53,0.77,-0.70,-0.08,-0.46,0.12,
4.93,4.10,0.27,0.03,-0.08,-0.46,0.12,
4.931,4.10,0.27,0.03,-0.06,-0.39,0.05,
4.938,4.10,0.27,0.03,-0.04,-0.40,-0.03,
4.939,6.22,0.23,1.27,-0.04,-0.40,-0.03,
4.939,6.22,0.23,1.27,-0.03,-0.48,-0.10,
4.94,6.22,0.23,1.27,-0.02,-0.57,-0.15,
4.94,3.49,-0.56,1.50,-0.02,-0.57,-0.15,
4.941,3.49,-0.56,1.50,0.01,-0.65,-0.19,
4.942,3.49,-0.56,1.50,0.05,-0.67,-0.18,
4.947,0.55,-0.96,0.95,0.05,-0.67,-0.18,
4.947,0.55,-0.96,0.95,0.10,-0.63,-0.18,
4.948,0.55,-0.96,0.95,0.17,-0.54,-0.18,
4.953,0.37,-0.35,0.46,0.17,-0.54,-0.18,
4.954,0.37,-0.35,0.46,0.25,-0.43,-0.19,
4.955,0.37,-0.35,0.46,0.32,-0.33,-0.20,
4.956,0.99,0.11,0.09,0.32,-0.33,-0.20,
4.956,0.99,0.11,0.09,0.36,-0.27,-0.21,
4.958,0.99,0.11,0.09,0.38,-0.28,-0.25,
4.961,2.30,0.67,-0.02,0.38,-0.28,-0.25,
4.961,2.30,0.67,-0.02,0.38,-0.32,-0.30,
4.961,2.30,0.67,-0.02,0.37,-0.35,-0.31,
4.966,0.82,0.98,-0.25,0.37,-0.35,-0.31,
4.967,0.82,0.98,-0.25,0.37,-0.36,-0.30,
4.967,0.82,0.98,-0.25,0.37,-0.38,-0.29,
4.972,-0.72,0.70,-0.16,0.37,-0.38,-0.29,
4.973,-0.72,0.70,-0.16,0.37,-0.39,-0.26,
4.974,-0.72,0.70,-0.16,0.37,-0.39,-0.22,
4.978,-1.41,0.00,-0.18,0.37,-0.39,-0.22,
4.978,-1.41,0.00,-0.18,0.38,-0.39,-0.19,
4.979,-1.41,0.00,-0.18,0.37,-0.39,-0.16,
4.979,-1.10,-0.24,-0.36,0.37,-0.39,-0.16,
4.98,-1.10,-0.24,-0.36,0.36,-0.40,-0.14,
4.989,-1.10,-0.24,-0.36,0.35,-0.40,-0.12,
4.99,-1.10,-0.24,-0.36,0.33,-0.41,-0.11,
4.99,-0.57,-0.25,-0.35,0.33,-0.41,-0.11,
4.991,-0.57,-0.25,-0.35,0.32,-0.43,-0.10,
4.991,-0.19,-0.24,0.01,0.32,-0.43,-0.10,
4.992,-0.19,-0.24,0.01,0.32,-0.44,-0.09,
4.992,-0.19,-0.24,0.01,0.33,-0.47,-0.08,
4.998,0.06,-0.50,0.35,0.33,-0.47,-0.08,
4.998,0.06,-0.50,0.35,0.33,-0.49,-0.08,
4.999,0.06,-0.50,0.35,0.34,-0.48,-0.08,
5.004,0.30,-0.12,0.33,0.34,-0.48,-0.08,
5.005,0.30,-0.12,0.33,0.36,-0.49,-0.08,
5.005,0.30,-0.12,0.33,0.37,-0.49,-0.08,
5.018,-0.58,-0.15,0.12,0.37,-0.49,-0.08,
5.018,-0.58,-0.15,0.12,0.39,-0.48,-0.06,
5.018,-0.58,-0.15,0.12,0.41,-0.43,0.02,
5.021,-0.51,-0.37,-0.29,0.41,-0.43,0.02,
5.022,-0.51,-0.37,-0.29,0.41,-0.42,0.01,
