time,ax,ay,az,wx,wy,wz,
0.001,-1.45,0.17,-1.85,-0.37,-0.73,0.12,
0.002,-1.56,0.41,-1.04,-0.37,-0.73,0.12,
0.002,-1.56,0.41,-1.04,-0.43,-0.80,0.15,
0.003,-1.56,0.41,-1.04,-0.49,-0.87,0.18,
0.003,-1.55,0.55,-0.28,-0.49,-0.87,0.18,
0.004,-1.55,0.55,-0.28,-0.54,-0.95,0.22,
0.004,-1.55,0.55,-0.28,-0.59,-1.01,0.24,
0.009,-1.39,0.65,-0.06,-0.59,-1.01,0.24,
0.01,-1.39,0.65,-0.06,-0.63,-1.06,0.27,
0.01,-1.39,0.65,-0.06,-0.67,-1.10,0.29,
0.011,-1.23,0.77,-0.22,-0.67,-1.10,0.29,
0.011,-1.23,0.77,-0.22,-0.70,-1.12,0.31,
0.014,-1.23,0.77,-0.22,-0.74,-1.14,0.32,
0.016,-1.10,0.86,-0.47,-0.74,-1.14,0.32,
0.017,-1.10,0.86,-0.47,-0.77,-1.14,0.34,
0.03,-1.10,0.86,-0.47,-0.80,-1.14,0.36,
0.03,-1.11,0.97,-0.59,-0.80,-1.14,0.36,
0.031,-1.11,0.97,-0.59,-0.83,-1.14,0.37,
0.031,-1.11,0.97,-0.59,-0.86,-1.11,0.39,
0.031,-0.95,1.06,-0.68,-0.86,-1.11,0.39,
0.032,-0.95,1.06,-0.68,-0.88,-1.10,0.40,
0.032,-0.95,1.06,-0.68,-0.90,-1.08,0.41,
0.033,-0.82,1.15,-0.37,-0.90,-1.08,0.41,
0.033,-0.82,1.15,-0.37,-0.92,-1.07,0.42,
0.034,-0.82,1.15,-0.37,-0.93,-1.07,0.42,
0.038,-0.70,1.20,0.13,-0.93,-1.07,0.42,
0.039,-0.70,1.20,0.13,-0.94,-1.07,0.42,
0.04,-0.70,1.20,0.13,-0.94,-1.08,0.42,
0.041,-0.66,1.15,0.82,-0.94,-1.08,0.42,
0.042,-0.66,1.15,0.82,-0.94,-1.10,0.41,
0.044,-0.66,1.15,0.82,-0.93,-1.13,0.41,
0.046,-0.62,1.05,1.47,-0.93,-1.13,0.41,
0.047,-0.62,1.05,1.47,-0.91,-1.16,0.39,
0.049,-0.62,1.05,1.47,-0.88,-1.19,0.38,
0.052,-0.62,1.05,1.47,-0.85,-1.22,0.37,
0.053,-0.56,0.94,1.82,-0.85,-1.22,0.37,
0.063,-0.56,0.94,1.82,-0.81,-1.24,0.35,
0.064,-0.47,0.84,1.90,-0.81,-1.24,0.35,
0.065,-0.47,0.84,1.90,-0.77,-1.26,0.33,
0.066,-0.47,0.84,1.90,-0.73,-1.27,0.31,
0.066,-0.34,0.78,1.58,-0.73,-1.27,0.31,
0.066,-0.34,0.78,1.58,-0.68,-1.27,0.29,
0.067,-0.34,0.78,1.58,-0.63,-1.26,0.27,
0.067,-0.46,1.35,0.84,-0.63,-1.26,0.27,
0.068,-0.46,1.35,0.84,-0.58,-1.21,0.27,
0.073,-0.46,1.35,0.84,-0.52,-1.16,0.28,
0.073,-0.45,1.54,0.22,-0.52,-1.16,0.28,
0.074,-0.45,1.54,0.22,-0.47,-1.12,0.28,
0.074,-0.45,1.54,0.22,-0.42,-1.08,0.29,
0.078,-0.06,0.95,-0.27,-0.42,-1.08,0.29,
0.079,-0.06,0.95,-0.27,-0.38,-1.05,0.29,
0.08,-0.06,0.95,-0.27,-0.35,-1.02,0.29,
0.081,0.35,0.12,-0.57,-0.35,-1.02,0.29,
0.081,0.35,0.12,-0.57,-0.32,-1.00,0.28,
0.084,0.35,0.12,-0.57,-0.29,-1.00,0.26,
0.086,0.65,-0.74,-0.48,-0.29,-1.00,0.26,
0.087,0.65,-0.74,-0.48,-0.27,-1.01,0.25,
0.094,0.83,-1.37,-0.60,-0.27,-1.01,0.25,
0.095,0.83,-1.37,-0.60,-0.24,-1.01,0.22,
0.095,0.83,-1.37,-0.60,-0.22,-1.01,0.20,
0.096,0.83,-1.37,-0.60,-0.20,-0.99,0.17,
0.097,0.06,-1.21,-1.63,-0.20,-0.99,0.17,
0.097,0.06,-1.21,-1.63,-0.19,-0.92,0.17,
0.099,0.06,-1.21,-1.63,-0.19,-0.79,0.19,
0.107,-1.69,-0.31,-3.50,-0.19,-0.79,0.19,
0.108,-1.69,-0.31,-3.50,-0.19,-0.65,0.24,
0.109,-1.69,-0.31,-3.50,-0.20,-0.52,0.30,
0.11,-2.09,0.22,-3.43,-0.20,-0.52,0.30,
0.11,-2.09,0.22,-3.43,-0.21,-0.43,0.36,
0.11,-2.09,0.22,-3.43,-0.21,-0.39,0.42,
0.111,-1.64,0.34,-1.61,-0.21,-0.39,0.42,
0.111,-1.64,0.34,-1.61,-0.20,-0.39,0.49,
0.114,-1.64,0.34,-1.61,-0.18,-0.44,0.53,
0.117,-1.05,0.31,0.55,-0.18,-0.44,0.53,
0.117,-1.05,0.31,0.55,-0.15,-0.52,0.57,
0.119,-1.05,0.31,0.55,-0.13,-0.59,0.60,
0.127,-0.64,0.30,1.40,-0.13,-0.59,0.60,
0.128,-0.64,0.30,1.40,-0.10,-0.65,0.63,
0.128,-0.64,0.30,1.40,-0.07,-0.69,0.65,
0.128,-0.45,0.34,1.00,-0.07,-0.69,0.65,
0.129,-0.45,0.34,1.00,-0.05,-0.71,0.67,
0.129,-0.45,0.34,1.00,-0.05,-0.73,0.69,
0.131,-0.36,0.36,0.40,-0.05,-0.73,0.69,
0.132,-0.36,0.36,0.40,-0.04,-0.74,0.71,
0.134,-0.36,0.36,0.40,-0.04,-0.76,0.73,
0.136,-0.36,0.44,0.08,-0.04,-0.76,0.73,
0.137,-0.36,0.44,0.08,-0.05,-0.77,0.76,
0.14,-0.36,0.44,0.08,-0.05,-0.78,0.78,
0.142,-0.19,0.49,-0.09,-0.05,-0.78,0.78,
0.142,-0.19,0.49,-0.09,-0.05,-0.79,0.80,
0.143,-0.19,0.49,-0.09,-0.06,-0.80,0.82,
0.148,0.06,0.42,-0.11,-0.06,-0.80,0.82,
0.148,0.06,0.42,-0.11,-0.07,-0.82,0.84,
0.149,0.06,0.42,-0.11,-0.07,-0.84,0.85,
0.153,0.70,-0.01,0.48,-0.07,-0.84,0.85,
0.154,0.70,-0.01,0.48,-0.08,-0.89,0.85,
0.154,0.70,-0.01,0.48,-0.08,-0.95,0.83,
0.157,1.73,-0.87,1.55,-0.08,-0.95,0.83,
0.158,1.73,-0.87,1.55,-0.08,-1.05,0.80,
0.16,1.73,-0.87,1.55,-0.08,-1.15,0.76,
0.165,2.58,-1.77,2.17,-0.08,-1.15,0.76,
0.166,2.58,-1.77,2.17,-0.08,-1.25,0.70,
0.166,2.58,-1.77,2.17,-0.08,-1.34,0.64,
0.167,3.07,-2.54,2.47,-0.08,-1.34,0.64,
0.167,3.07,-2.54,2.47,-0.09,-1.44,0.57,
0.17,3.07,-2.54,2.47,-0.09,-1.52,0.49,
0.173,3.42,-3.12,2.54,-0.09,-1.52,0.49,
0.174,3.42,-3.12,2.54,-0.09,-1.60,0.40,
0.174,3.42,-3.12,2.54,-0.09,-1.67,0.32,
0.176,3.52,-3.38,2.64,-0.09,-1.67,0.32,
0.177,3.52,-3.38,2.64,-0.09,-1.74,0.24,
0.18,3.52,-3.38,2.64,-0.09,-1.78,0.15,
0.181,3.29,-3.41,2.27,-0.09,-1.78,0.15,
0.182,3.29,-3.41,2.27,-0.09,-1.79,0.07,
0.187,2.82,-3.11,1.65,-0.09,-1.79,0.07,
0.188,2.82,-3.11,1.65,-0.09,-1.77,-0.00,
0.188,2.82,-3.11,1.65,-0.09,-1.73,-0.07,
0.189,2.82,-3.11,1.65,-0.08,-1.67,-0.13,
0.192,2.36,-2.52,1.34,-0.08,-1.67,-0.13,
0.192,2.36,-2.52,1.34,-0.08,-1.60,-0.17,
0.194,2.36,-2.52,1.34,-0.07,-1.54,-0.20,
0.196,1.92,-1.79,1.14,-0.07,-1.54,-0.20,
0.197,1.92,-1.79,1.14,-0.06,-1.48,-0.23,
0.2,1.92,-1.79,1.14,-0.06,-1.42,-0.24,
0.211,1.92,-1.79,1.14,-0.05,-1.37,-0.25,
0.212,1.40,-0.99,1.06,-0.05,-1.37,-0.25,
0.213,1.40,-0.99,1.06,-0.04,-1.34,-0.24,
0.213,0.80,-0.33,1.10,-0.04,-1.34,-0.24,
0.214,0.80,-0.33,1.10,-0.03,-1.31,-0.23,
0.214,0.80,-0.33,1.10,-0.02,-1.28,-0.20,
0.215,0.27,0.22,0.83,-0.02,-1.28,-0.20,
0.215,0.27,0.22,0.83,-0.02,-1.26,-0.17,
0.215,0.27,0.22,0.83,-0.02,-1.26,-0.13,
0.217,-0.12,0.64,0.63,-0.02,-1.26,-0.13,
0.219,-0.12,0.64,0.63,-0.02,-1.26,-0.09,
0.22,-0.12,0.64,0.63,-0.02,-1.27,-0.04,
0.222,-0.47,0.72,-0.01,-0.02,-1.27,-0.04,
0.222,-0.47,0.72,-0.01,-0.03,-1.25,0.00,
0.224,-0.47,0.72,-0.01,-0.04,-1.21,0.05,
0.227,-0.66,0.77,-0.81,-0.04,-1.21,0.05,
0.228,-0.66,0.77,-0.81,-0.06,-1.17,0.09,
0.23,-0.66,0.77,-0.81,-0.09,-1.11,0.12,
0.232,-0.67,0.85,-1.72,-0.09,-1.11,0.12,
0.233,-0.67,0.85,-1.72,-0.12,-1.04,0.16,
0.234,-0.67,0.85,-1.72,-0.16,-0.96,0.20,
0.238,-0.66,0.98,-2.80,-0.16,-0.96,0.20,
0.238,-0.66,0.98,-2.80,-0.20,-0.85,0.24,
0.239,-0.66,0.98,-2.80,-0.24,-0.74,0.28,
0.242,-0.72,1.08,-3.66,-0.24,-0.74,0.28,
0.243,-0.72,1.08,-3.66,-0.30,-0.61,0.32,
0.245,-0.72,1.08,-3.66,-0.35,-0.49,0.36,
0.247,-0.75,1.02,-4.20,-0.35,-0.49,0.36,
0.247,-0.75,1.02,-4.20,-0.41,-0.36,0.41,
0.249,-0.75,1.02,-4.20,-0.47,-0.24,0.44,
0.254,-0.67,0.79,-4.55,-0.47,-0.24,0.44,
0.255,-0.67,0.79,-4.55,-0.54,-0.12,0.47,
0.256,-0.67,0.79,-4.55,-0.60,-0.00,0.50,
0.257,-0.42,0.48,-4.71,-0.60,-0.00,0.50,
0.257,-0.42,0.48,-4.71,-0.68,0.11,0.52,
0.26,-0.42,0.48,-4.71,-0.75,0.21,0.53,
0.262,-0.01,0.11,-4.57,-0.75,0.21,0.53,
0.262,-0.01,0.11,-4.57,-0.82,0.31,0.54,
0.264,-0.01,0.11,-4.57,-0.90,0.39,0.54,
0.266,0.46,-0.25,-4.25,-0.90,0.39,0.54,
0.267,0.46,-0.25,-4.25,-0.98,0.46,0.53,
0.27,0.46,-0.25,-4.25,-1.05,0.53,0.52,
0.271,0.87,-0.56,-4.07,-1.05,0.53,0.52,
0.272,0.87,-0.56,-4.07,-1.13,0.59,0.50,
0.274,0.87,-0.56,-4.07,-1.20,0.65,0.48,
0.277,1.15,-0.77,-3.65,-1.20,0.65,0.48,
0.278,1.15,-0.77,-3.65,-1.27,0.69,0.45,
0.28,1.15,-0.77,-3.65,-1.34,0.71,0.42,
0.281,1.30,-0.91,-2.79,-1.34,0.71,0.42,
0.282,1.30,-0.91,-2.79,-1.40,0.71,0.40,
0.286,1.30,-0.91,-2.79,-1.46,0.66,0.37,
0.287,1.51,-1.10,-1.12,-1.46,0.66,0.37,
0.288,1.51,-1.10,-1.12,-1.51,0.58,0.33,
0.289,1.51,-1.10,-1.12,-1.56,0.48,0.29,
0.294,1.56,-1.48,-0.42,-1.56,0.48,0.29,
0.294,1.56,-1.48,-0.42,-1.60,0.36,0.25,
0.295,1.56,-1.48,-0.42,-1.64,0.25,0.20,
0.298,1.50,-1.53,0.27,-1.64,0.25,0.20,
0.298,1.50,-1.53,0.27,-1.67,0.13,0.16,
0.299,1.50,-1.53,0.27,-1.70,0.01,0.12,
0.312,1.31,-1.39,0.87,-1.70,0.01,0.12,
0.313,1.31,-1.39,0.87,-1.71,-0.10,0.08,
0.314,1.31,-1.39,0.87,-1.72,-0.23,0.05,
0.314,1.31,-1.39,0.87,-1.71,-0.36,0.02,
0.315,1.09,-1.00,1.68,-1.71,-0.36,0.02,
0.315,1.09,-1.00,1.68,-1.69,-0.48,0.01,
0.316,0.39,-0.15,1.92,-1.69,-0.48,0.01,
0.316,0.39,-0.15,1.92,-1.64,-0.57,0.01,
0.317,0.39,-0.15,1.92,-1.58,-0.63,0.03,
0.317,-0.13,0.71,1.94,-1.58,-0.63,0.03,
0.318,-0.13,0.71,1.94,-1.50,-0.67,0.06,
0.32,-0.13,0.71,1.94,-1.40,-0.72,0.11,
0.322,0.44,1.90,2.55,-1.40,-0.72,0.11,
0.322,0.44,1.90,2.55,-1.28,-0.75,0.18,
0.325,0.44,1.90,2.55,-1.14,-0.75,0.24,
0.327,-0.41,2.70,2.31,-1.14,-0.75,0.24,
0.333,-0.41,2.70,2.31,-0.99,-0.71,0.31,
0.333,-0.41,2.70,2.31,-0.84,-0.62,0.38,
0.334,-1.07,2.79,2.31,-0.84,-0.62,0.38,
0.334,-1.07,2.79,2.31,-0.68,-0.55,0.47,
0.337,-1.07,2.79,2.31,-0.50,-0.55,0.55,
0.338,-0.61,3.02,3.01,-0.50,-0.55,0.55,
0.339,-0.61,3.02,3.01,-0.33,-0.57,0.63,
0.34,-0.61,3.02,3.01,-0.16,-0.60,0.70,
0.343,-0.08,2.43,2.10,-0.16,-0.60,0.70,
0.344,-0.08,2.43,2.10,-0.01,-0.61,0.75,
0.346,-0.08,2.43,2.10,0.13,-0.59,0.78,
0.347,-0.08,2.43,2.10,0.24,-0.52,0.79,
0.348,0.71,1.08,0.24,0.24,-0.52,0.79,
0.351,0.71,1.08,0.24,0.34,-0.39,0.78,
0.354,1.38,-0.17,-2.05,0.34,-0.39,0.78,
0.356,1.38,-0.17,-2.05,0.41,-0.22,0.76,
0.356,1.38,-0.17,-2.05,0.47,-0.01,0.73,
0.357,1.70,-0.87,-4.29,0.47,-0.01,0.73,
0.358,1.70,-0.87,-4.29,0.51,0.26,0.71,
0.36,1.70,-0.87,-4.29,0.53,0.55,0.69,
0.362,2.85,-1.20,-5.69,0.53,0.55,0.69,
0.363,2.85,-1.20,-5.69,0.54,0.84,0.68,
0.365,2.85,-1.20,-5.69,0.54,1.12,0.67,
0.368,2.91,-1.13,-5.98,0.54,1.12,0.67,
0.372,2.91,-1.13,-5.98,0.55,1.39,0.68,
0.373,2.91,-1.13,-5.98,0.55,1.64,0.69,
0.373,1.82,-1.19,-5.82,0.55,1.64,0.69,
0.374,1.82,-1.19,-5.82,0.56,1.90,0.71,
0.374,1.82,-1.19,-5.82,0.57,2.15,0.74,
0.379,0.60,-1.32,-5.69,0.57,2.15,0.74,
0.38,0.60,-1.32,-5.69,0.58,2.40,0.77,
0.38,0.60,-1.32,-5.69,0.58,2.63,0.80,
0.383,-0.67,-1.46,-5.61,0.58,2.63,0.80,
0.383,-0.67,-1.46,-5.61,0.59,2.85,0.85,
0.388,-1.73,-1.74,-5.37,0.59,2.85,0.85,
0.388,-1.73,-1.74,-5.37,0.59,3.04,0.90,
0.39,-1.73,-1.74,-5.37,0.59,3.21,0.94,
0.39,-1.73,-1.74,-5.37,0.58,3.28,0.98,
0.392,-3.36,-3.76,-2.33,0.58,3.28,0.98,
0.393,-3.36,-3.76,-2.33,0.54,3.14,0.97,
0.394,-3.36,-3.76,-2.33,0.44,2.72,0.93,
0.397,-7.31,-3.73,2.40,0.44,2.72,0.93,
0.398,-7.31,-3.73,2.40,0.29,2.17,0.91,
0.399,-7.31,-3.73,2.40,0.10,1.64,0.92,
0.417,-5.77,-3.35,0.76,0.10,1.64,0.92,
0.419,-5.77,-3.35,0.76,-0.10,1.17,0.91,
0.42,-5.77,-3.35,0.76,-0.30,0.76,0.86,
0.42,-2.86,-4.18,-1.93,-0.30,0.76,0.86,
0.421,-2.86,-4.18,-1.93,-0.50,0.45,0.78,
0.422,-2.86,-4.18,-1.93,-0.70,0.25,0.69,
0.422,-1.23,-3.57,-5.02,-0.70,0.25,0.69,
0.423,-1.23,-3.57,-5.02,-0.90,0.14,0.59,
0.424,-1.23,-3.57,-5.02,-1.08,0.11,0.48,
0.424,-1.23,-3.57,-5.02,-1.24,0.11,0.37,
0.425,0.74,-2.56,-6.23,-1.24,0.11,0.37,
0.426,0.74,-2.56,-6.23,-1.39,0.12,0.26,
0.426,2.56,-1.29,-5.61,-1.39,0.12,0.26,
0.427,2.56,-1.29,-5.61,-1.52,0.15,0.15,
0.427,2.56,-1.29,-5.61,-1.64,0.18,0.04,
0.428,3.84,-0.16,-4.52,-1.64,0.18,0.04,
0.429,3.84,-0.16,-4.52,-1.74,0.22,-0.07,
0.431,3.84,-0.16,-4.52,-1.83,0.27,-0.18,
0.433,4.16,0.98,-3.42,-1.83,0.27,-0.18,
0.434,4.16,0.98,-3.42,-1.91,0.32,-0.27,
0.435,4.16,0.98,-3.42,-1.98,0.36,-0.36,
0.438,4.03,1.47,-2.53,-1.98,0.36,-0.36,
0.439,4.03,1.47,-2.53,-2.04,0.42,-0.45,
0.439,4.03,1.47,-2.53,-2.09,0.51,-0.53,
0.442,3.42,1.16,-2.23,-2.09,0.51,-0.53,
0.442,3.42,1.16,-2.23,-2.14,0.63,-0.62,
0.445,3.42,1.16,-2.23,-2.19,0.75,-0.69,
0.447,2.84,0.30,-1.80,-2.19,0.75,-0.69,
0.447,2.84,0.30,-1.80,-2.23,0.87,-0.77,
0.45,2.84,0.30,-1.80,-2.26,0.95,-0.84,
0.453,2.58,-0.50,-0.84,-2.26,0.95,-0.84,
0.454,2.58,-0.50,-0.84,-2.29,0.99,-0.90,
0.455,2.58,-0.50,-0.84,-2.31,0.99,-0.93,
0.457,2.12,-1.19,0.64,-2.31,0.99,-0.93,
0.458,2.12,-1.19,0.64,-2.31,0.94,-0.94,
0.46,2.12,-1.19,0.64,-2.29,0.83,-0.95,
0.463,1.95,-0.72,2.34,-2.29,0.83,-0.95,
0.464,1.95,-0.72,2.34,-2.26,0.67,-0.95,
0.464,1.95,-0.72,2.34,-2.21,0.48,-0.94,
0.468,1.45,-0.06,3.55,-2.21,0.48,-0.94,
0.469,1.45,-0.06,3.55,-2.15,0.27,-0.93,
0.471,1.45,-0.06,3.55,-2.07,0.07,-0.92,
0.472,1.20,0.27,3.79,-2.07,0.07,-0.92,
0.473,1.20,0.27,3.79,-1.98,-0.12,-0.92,
0.475,1.20,0.27,3.79,-1.87,-0.29,-0.93,
0.478,1.32,0.15,3.41,-1.87,-0.29,-0.93,
0.479,1.32,0.15,3.41,-1.76,-0.44,-0.95,
0.479,1.32,0.15,3.41,-1.64,-0.57,-0.97,
0.483,1.85,-0.17,3.04,-1.64,-0.57,-0.97,
0.486,1.85,-0.17,3.04,-1.52,-0.69,-1.01,
0.487,1.85,-0.17,3.04,-1.40,-0.79,-1.07,
0.488,2.24,-0.54,2.87,-1.40,-0.79,-1.07,
0.488,2.24,-0.54,2.87,-1.28,-0.89,-1.13,
0.489,2.24,-0.54,2.87,-1.16,-1.00,-1.20,
0.492,2.35,-0.89,3.24,-1.16,-1.00,-1.20,
0.493,2.35,-0.89,3.24,-1.04,-1.12,-1.28,
0.498,2.35,-0.89,3.24,-0.91,-1.25,-1.35,
0.498,1.72,-1.14,3.69,-0.91,-1.25,-1.35,
0.499,1.72,-1.14,3.69,-0.78,-1.37,-1.41,
0.501,1.72,-1.14,3.69,-0.64,-1.51,-1.47,
0.508,0.84,-1.39,4.11,-0.64,-1.51,-1.47,
0.509,0.84,-1.39,4.11,-0.50,-1.65,-1.53,
0.509,0.84,-1.39,4.11,-0.35,-1.79,-1.58,
0.51,-0.10,-1.73,4.33,-0.35,-1.79,-1.58,
0.51,-0.10,-1.73,4.33,-0.21,-1.94,-1.64,
0.511,-0.10,-1.73,4.33,-0.06,-2.08,-1.68,
0.513,-1.00,-2.02,4.18,-0.06,-2.08,-1.68,
0.513,-1.00,-2.02,4.18,0.08,-2.23,-1.73,
0.515,-1.00,-2.02,4.18,0.22,-2.35,-1.76,
0.518,-1.78,-2.13,3.47,0.22,-2.35,-1.76,
0.519,-1.78,-2.13,3.47,0.36,-2.45,-1.79,
0.521,-1.78,-2.13,3.47,0.50,-2.49,-1.81,
0.523,-2.47,-2.06,2.39,0.50,-2.49,-1.81,
0.524,-2.47,-2.06,2.39,0.64,-2.49,-1.82,
0.526,-2.47,-2.06,2.39,0.79,-2.47,-1.82,
0.528,-3.18,-1.86,2.07,0.79,-2.47,-1.82,
0.528,-3.18,-1.86,2.07,0.94,-2.43,-1.80,
0.529,-3.18,-1.86,2.07,1.08,-2.37,-1.78,
0.533,-3.57,-1.95,1.64,1.08,-2.37,-1.78,
0.534,-3.57,-1.95,1.64,1.23,-2.28,-1.74,
0.535,-3.57,-1.95,1.64,1.38,-2.18,-1.71,
0.538,-3.62,-2.13,1.14,1.38,-2.18,-1.71,
0.539,-3.62,-2.13,1.14,1.52,-2.07,-1.66,
0.541,-3.62,-2.13,1.14,1.65,-1.96,-1.61,
0.544,-4.04,-1.88,-1.73,1.65,-1.96,-1.61,
0.545,-4.04,-1.88,-1.73,1.71,-1.69,-1.50,
0.545,-4.04,-1.88,-1.73,1.45,-0.84,-1.27,
0.548,-5.14,-0.32,-10.75,1.45,-0.84,-1.27,
0.548,-5.14,-0.32,-10.75,1.17,-0.06,-0.98,
0.551,-5.14,-0.32,-10.75,0.98,0.40,-0.66,
0.557,-5.37,1.11,-5.40,0.98,0.40,-0.66,
0.558,-5.37,1.11,-5.40,0.80,0.74,-0.32,
0.558,-5.37,1.11,-5.40,0.60,1.08,0.00,
0.559,-5.37,1.11,-5.40,0.39,1.32,0.30,
0.559,-4.67,2.12,-4.00,0.39,1.32,0.30,
0.56,-4.67,2.12,-4.00,0.21,1.39,0.55,
0.563,-3.04,2.38,-0.93,0.21,1.39,0.55,
0.565,-3.04,2.38,-0.93,0.03,1.35,0.74,
0.566,-3.04,2.38,-0.93,-0.17,1.23,0.90,
0.57,-1.36,2.15,-0.07,-0.17,1.23,0.90,
0.573,-1.36,2.15,-0.07,-0.40,1.06,1.01,
0.573,0.34,1.38,-0.20,-0.40,1.06,1.01,
0.574,0.34,1.38,-0.20,-0.64,0.85,1.07,
0.575,0.34,1.38,-0.20,-0.87,0.65,1.09,
0.576,0.34,1.38,-0.20,-1.09,0.48,1.08,
0.577,1.73,0.53,-1.38,-1.09,0.48,1.08,
0.578,1.73,0.53,-1.38,-1.30,0.35,1.04,
0.58,1.73,0.53,-1.38,-1.49,0.29,0.98,
0.582,2.03,0.13,-2.62,-1.49,0.29,0.98,
0.583,2.03,0.13,-2.62,-1.67,0.28,0.93,
0.587,2.03,0.13,-2.62,-1.84,0.30,0.88,
0.589,1.67,0.02,-2.85,-1.84,0.30,0.88,
0.59,1.67,0.02,-2.85,-1.99,0.36,0.85,
0.591,1.67,0.02,-2.85,-2.13,0.46,0.85,
0.593,1.01,-0.06,-3.57,-2.13,0.46,0.85,
0.594,1.01,-0.06,-3.57,-2.28,0.65,0.88,
0.594,1.01,-0.06,-3.57,-2.43,0.86,0.93,
0.597,0.56,-0.15,-2.69,-2.43,0.86,0.93,
0.598,0.56,-0.15,-2.69,-2.54,1.03,0.99,
0.6,0.56,-0.15,-2.69,-2.63,1.11,1.06,
0.609,0.28,-0.26,-0.01,-2.63,1.11,1.06,
0.61,0.28,-0.26,-0.01,-2.67,1.11,1.12,
0.611,0.28,-0.26,-0.01,-2.68,1.05,1.17,
0.611,-0.16,-0.13,2.04,-2.68,1.05,1.17,
0.611,-0.16,-0.13,2.04,-2.67,0.95,1.22,
0.612,-0.16,-0.13,2.04,-2.63,0.81,1.27,
0.613,-0.16,-0.13,2.04,-2.56,0.64,1.30,
0.616,-0.65,-0.04,3.59,-2.56,0.64,1.30,
0.616,-0.65,-0.04,3.59,-2.48,0.44,1.33,
0.617,-0.65,-0.04,3.59,-2.37,0.22,1.35,
0.618,-0.65,-0.21,4.76,-2.37,0.22,1.35,
0.621,-0.65,-0.21,4.76,-2.23,-0.01,1.36,
0.624,-0.13,-0.58,5.49,-2.23,-0.01,1.36,
0.626,-0.13,-0.58,5.49,-2.07,-0.25,1.36,
0.627,-0.13,-0.58,5.49,-1.90,-0.50,1.35,
0.629,0.51,-0.89,6.15,-1.90,-0.50,1.35,
0.63,0.51,-0.89,6.15,-1.70,-0.76,1.33,
0.63,0.51,-0.89,6.15,-1.48,-1.03,1.30,
0.634,1.03,-1.09,6.92,-1.48,-1.03,1.30,
0.634,1.03,-1.09,6.92,-1.26,-1.32,1.26,
0.637,1.03,-1.09,6.92,-1.01,-1.63,1.21,
0.638,1.43,-1.27,7.53,-1.01,-1.63,1.21,
0.638,1.43,-1.27,7.53,-0.76,-1.94,1.14,
0.64,1.43,-1.27,7.53,-0.50,-2.25,1.07,
0.642,1.74,-1.46,7.58,-0.50,-2.25,1.07,
0.643,1.74,-1.46,7.58,-0.25,-2.56,0.98,
0.646,1.74,-1.46,7.58,0.00,-2.87,0.88,
0.648,1.97,-1.58,7.16,0.00,-2.87,0.88,
0.648,1.97,-1.58,7.16,0.24,-3.18,0.78,
0.65,1.97,-1.58,7.16,0.46,-3.48,0.68,
0.654,2.03,-1.42,6.32,0.46,-3.48,0.68,
0.656,2.03,-1.42,6.32,0.67,-3.78,0.58,
0.657,2.03,-1.42,6.32,0.85,-4.07,0.49,
0.658,1.87,-1.05,4.90,0.85,-4.07,0.49,
0.658,1.87,-1.05,4.90,1.01,-4.33,0.40,
0.66,1.87,-1.05,4.90,1.13,-4.58,0.32,
0.666,1.57,-0.63,3.12,1.13,-4.58,0.32,
0.667,1.57,-0.63,3.12,1.23,-4.80,0.25,
0.667,1.57,-0.63,3.12,1.30,-4.99,0.18,
0.668,1.09,-0.29,1.31,1.30,-4.99,0.18,
0.671,1.09,-0.29,1.31,1.35,-5.17,0.14,
0.672,1.09,-0.29,1.31,1.37,-5.33,0.11,
0.673,0.48,-0.02,-0.23,1.37,-5.33,0.11,
0.673,0.48,-0.02,-0.23,1.37,-5.48,0.10,
0.675,0.48,-0.02,-0.23,1.36,-5.62,0.11,
0.678,-0.05,0.09,-1.42,1.36,-5.62,0.11,
0.679,-0.05,0.09,-1.42,1.33,-5.76,0.12,
0.681,-0.05,0.09,-1.42,1.29,-5.89,0.14,
0.684,0.08,0.06,-2.26,1.29,-5.89,0.14,
0.684,0.08,0.06,-2.26,1.24,-6.01,0.14,
0.688,0.08,0.06,-2.26,1.18,-6.12,0.14,
0.689,-0.02,0.08,-3.09,1.18,-6.12,0.14,
0.69,-0.02,0.08,-3.09,1.12,-6.20,0.13,
0.69,-0.02,0.08,-3.09,1.05,-6.25,0.11,
0.693,-0.66,0.14,-3.77,1.05,-6.25,0.11,
0.693,-0.66,0.14,-3.77,0.99,-6.28,0.10,
0.695,-0.66,0.14,-3.77,0.91,-6.26,0.10,
0.698,-1.68,0.09,-4.84,0.91,-6.26,0.10,
0.698,-1.68,0.09,-4.84,0.83,-6.19,0.11,
0.701,-1.68,0.09,-4.84,0.75,-6.07,0.14,
0.707,-2.52,-0.09,-5.97,0.75,-6.07,0.14,
0.708,-2.52,-0.09,-5.97,0.65,-5.90,0.18,
0.708,-2.52,-0.09,-5.97,0.55,-5.69,0.24,
0.709,-2.87,-0.33,-6.65,0.55,-5.69,0.24,
0.709,-2.87,-0.33,-6.65,0.44,-5.44,0.31,
0.712,-2.87,-0.33,-6.65,0.33,-5.18,0.39,
0.713,-2.88,-0.53,-6.60,0.33,-5.18,0.39,
0.714,-2.88,-0.53,-6.60,0.23,-4.91,0.48,
0.717,-2.88,-0.53,-6.60,0.12,-4.65,0.58,
0.719,-2.62,-0.72,-5.98,0.12,-4.65,0.58,
0.72,-2.62,-0.72,-5.98,0.02,-4.40,0.68,
0.72,-2.62,-0.72,-5.98,-0.08,-4.17,0.77,
0.723,-1.85,-0.72,-5.29,-0.08,-4.17,0.77,
0.724,-1.85,-0.72,-5.29,-0.17,-3.96,0.85,
0.726,-1.85,-0.72,-5.29,-0.25,-3.79,0.93,
0.727,-1.29,-0.98,-3.73,-0.25,-3.79,0.93,
0.728,-1.29,-0.98,-3.73,-0.31,-3.66,0.99,
0.731,-1.29,-0.98,-3.73,-0.35,-3.56,1.05,
0.734,-1.38,-1.12,-2.52,-0.35,-3.56,1.05,
0.734,-1.38,-1.12,-2.52,-0.38,-3.47,1.11,
0.738,-1.38,-1.12,-2.52,-0.39,-3.39,1.15,
0.739,-1.48,-1.29,-2.01,-0.39,-3.39,1.15,
0.74,-1.48,-1.29,-2.01,-0.38,-3.32,1.19,
0.741,-1.48,-1.29,-2.01,-0.36,-3.26,1.23,
0.744,-1.50,-1.40,-1.41,-0.36,-3.26,1.23,
0.744,-1.50,-1.40,-1.41,-0.34,-3.22,1.26,
0.746,-1.50,-1.40,-1.41,-0.31,-3.20,1.30,
0.749,-1.70,-1.35,-0.80,-0.31,-3.20,1.30,
0.749,-1.70,-1.35,-0.80,-0.28,-3.20,1.34,
0.75,-1.70,-1.35,-0.80,-0.24,-3.23,1.39,
0.755,-1.83,-1.27,-0.20,-0.24,-3.23,1.39,
0.756,-1.83,-1.27,-0.20,-0.20,-3.28,1.44,
0.757,-1.83,-1.27,-0.20,-0.16,-3.35,1.48,
0.76,-1.69,-1.29,-0.12,-0.16,-3.35,1.48,
0.76,-1.69,-1.29,-0.12,-0.13,-3.42,1.52,
0.761,-1.69,-1.29,-0.12,-0.09,-3.47,1.54,
0.763,-1.25,-1.30,-0.46,-0.09,-3.47,1.54,
0.764,-1.25,-1.30,-0.46,-0.06,-3.53,1.56,
0.765,-1.25,-1.30,-0.46,-0.04,-3.59,1.57,
0.77,-0.71,-1.21,-0.88,-0.04,-3.59,1.57,
0.771,-0.71,-1.21,-0.88,-0.02,-3.64,1.56,
0.771,-0.71,-1.21,-0.88,-0.00,-3.68,1.55,
0.774,-0.23,-1.22,-1.45,-0.00,-3.68,1.55,
0.775,-0.23,-1.22,-1.45,0.01,-3.68,1.54,
0.775,-0.23,-1.22,-1.45,0.02,-3.59,1.53,
0.779,0.39,-1.18,-1.90,0.02,-3.59,1.53,
0.78,0.39,-1.18,-1.90,0.03,-3.44,1.52,
0.78,0.39,-1.18,-1.90,0.05,-3.35,1.52,
0.785,0.62,-1.07,-0.68,0.05,-3.35,1.52,
0.785,0.62,-1.07,-0.68,0.05,-3.39,1.51,
0.788,0.62,-1.07,-0.68,0.02,-3.49,1.50,
0.79,0.82,-1.08,-0.51,0.02,-3.49,1.50,
0.79,0.82,-1.08,-0.51,-0.02,-3.59,1.48,
0.792,0.82,-1.08,-0.51,-0.06,-3.66,1.46,
0.793,1.16,-1.11,-0.60,-0.06,-3.66,1.46,
0.794,1.16,-1.11,-0.60,-0.10,-3.70,1.43,
0.801,0.95,-1.00,-0.32,-0.10,-3.70,1.43,
0.803,0.95,-1.00,-0.32,-0.13,-3.73,1.41,
0.806,0.51,-0.58,-0.26,-0.13,-3.73,1.41,
0.806,0.51,-0.58,-0.26,-0.15,-3.74,1.39,
0.807,0.51,-0.58,-0.26,-0.16,-3.73,1.38,
0.808,0.51,-0.58,-0.26,-0.16,-3.70,1.38,
0.808,0.51,-0.58,-0.26,-0.16,-3.66,1.38,
0.809,0.13,-0.23,-0.17,-0.16,-3.66,1.38,
0.809,0.13,-0.23,-0.17,-0.14,-3.60,1.39,
0.812,0.13,-0.23,-0.17,-0.12,-3.54,1.41,
0.813,-0.20,-0.08,0.02,-0.12,-3.54,1.41,
0.813,-0.20,-0.08,0.02,-0.09,-3.47,1.43,
0.816,-0.20,-0.08,0.02,-0.06,-3.41,1.45,
0.818,-0.50,-0.23,0.30,-0.06,-3.41,1.45,
0.819,-0.50,-0.23,0.30,-0.03,-3.36,1.46,
0.825,-0.50,-0.23,0.30,-0.01,-3.31,1.48,
0.826,-0.83,-0.45,0.55,-0.01,-3.31,1.48,
0.826,-0.83,-0.45,0.55,0.01,-3.28,1.49,
0.827,-0.83,-0.45,0.55,0.03,-3.28,1.50,
0.829,-1.26,-0.57,0.92,0.03,-3.28,1.50,
0.834,-1.26,-0.57,0.92,0.05,-3.29,1.52,
0.834,-1.26,-0.57,0.92,0.06,-3.33,1.55,
0.835,-1.91,-0.67,1.32,0.06,-3.33,1.55,
0.835,-1.91,-0.67,1.32,0.07,-3.38,1.58,
0.836,-1.91,-0.67,1.32,0.09,-3.45,1.62,
0.842,-2.62,-0.82,1.87,0.09,-3.45,1.62,
0.843,-2.62,-0.82,1.87,0.11,-3.53,1.67,
0.844,-2.62,-0.82,1.87,0.14,-3.62,1.71,
0.844,-2.62,-0.82,1.87,0.17,-3.72,1.77,
0.845,-3.22,-0.90,2.32,0.17,-3.72,1.77,
0.846,-3.22,-0.90,2.32,0.20,-3.81,1.83,
0.849,-3.74,-0.97,2.55,0.20,-3.81,1.83,
0.849,-3.74,-0.97,2.55,0.24,-3.90,1.88,
0.851,-3.74,-0.97,2.55,0.28,-3.98,1.95,
0.855,-4.01,-1.02,2.61,0.28,-3.98,1.95,
0.856,-4.01,-1.02,2.61,0.32,-4.04,2.02,
0.857,-4.01,-1.02,2.61,0.37,-4.08,2.08,
0.858,-3.99,-1.05,2.37,0.37,-4.08,2.08,
0.858,-3.99,-1.05,2.37,0.42,-4.10,2.14,
0.862,-3.99,-1.05,2.37,0.46,-4.09,2.20,
0.863,-3.48,-1.03,1.90,0.46,-4.09,2.20,
0.864,-3.48,-1.03,1.90,0.51,-4.06,2.26,
0.866,-3.48,-1.03,1.90,0.56,-4.00,2.31,
0.872,-2.55,-1.00,1.48,0.56,-4.00,2.31,
0.873,-2.55,-1.00,1.48,0.60,-3.93,2.36,
0.873,-2.55,-1.00,1.48,0.63,-3.86,2.41,
0.875,-1.50,-0.93,1.23,0.63,-3.86,2.41,
0.876,-1.50,-0.93,1.23,0.67,-3.77,2.45,
0.876,-1.50,-0.93,1.23,0.68,-3.68,2.48,
0.878,-0.48,-0.89,1.10,0.68,-3.68,2.48,
0.878,-0.48,-0.89,1.10,0.70,-3.58,2.50,
0.88,-0.48,-0.89,1.10,0.70,-3.47,2.52,
0.883,0.34,-0.85,0.93,0.70,-3.47,2.52,
0.883,0.34,-0.85,0.93,0.70,-3.36,2.52,
0.886,0.34,-0.85,0.93,0.69,-3.24,2.53,
0.888,0.34,-0.85,0.93,0.68,-3.10,2.52,
0.889,1.02,-0.79,0.66,0.68,-3.10,2.52,
0.891,1.02,-0.79,0.66,0.67,-2.95,2.51,
0.893,1.53,-0.74,0.38,0.67,-2.95,2.51,
0.894,1.53,-0.74,0.38,0.65,-2.79,2.49,
0.895,1.53,-0.74,0.38,0.64,-2.63,2.48,
0.898,1.53,-0.74,0.38,0.62,-2.48,2.46,
0.898,1.80,-0.76,0.36,0.62,-2.48,2.46,
0.901,1.80,-0.76,0.36,0.61,-2.32,2.44,
0.906,1.80,-0.80,0.57,0.61,-2.32,2.44,
0.906,1.80,-0.80,0.57,0.60,-2.19,2.42,
0.907,1.80,-0.80,0.57,0.58,-2.06,2.41,
0.909,1.61,-0.78,0.98,0.58,-2.06,2.41,
0.909,1.61,-0.78,0.98,0.58,-1.95,2.39,
0.911,1.61,-0.78,0.98,0.58,-1.85,2.38,
0.914,1.33,-0.75,1.45,0.58,-1.85,2.38,
0.914,1.33,-0.75,1.45,0.58,-1.78,2.38,
0.915,1.33,-0.75,1.45,0.59,-1.71,2.37,
0.918,1.33,-0.75,1.45,0.60,-1.66,2.37,
0.919,1.03,-0.70,1.89,0.60,-1.66,2.37,
0.922,1.03,-0.70,1.89,0.62,-1.63,2.38,
0.923,0.74,-0.66,2.27,0.62,-1.63,2.38,
0.923,0.74,-0.66,2.27,0.64,-1.60,2.38,
0.926,0.74,-0.66,2.27,0.66,-1.58,2.38,
0.928,0.74,-0.66,2.27,0.68,-1.56,2.38,
0.929,0.64,-0.59,2.28,0.68,-1.56,2.38,
0.931,0.64,-0.59,2.28,0.69,-1.55,2.36,
0.934,0.64,-0.59,2.28,0.70,-1.54,2.35,
0.937,0.68,-0.57,2.12,0.70,-1.54,2.35,
0.938,0.68,-0.57,2.12,0.71,-1.54,2.34,
0.939,0.67,-0.54,2.08,0.71,-1.54,2.34,
0.939,0.67,-0.54,2.08,0.71,-1.56,2.33,
0.941,0.67,-0.54,2.08,0.72,-1.59,2.32,
0.944,0.51,-0.55,2.38,0.72,-1.59,2.32,
0.944,0.51,-0.55,2.38,0.72,-1.63,2.31,
0.946,0.51,-0.55,2.38,0.73,-1.68,2.31,
0.949,0.51,-0.55,2.38,0.75,-1.76,2.30,
0.949,0.25,-0.66,2.97,0.75,-1.76,2.30,
0.95,0.25,-0.66,2.97,0.77,-1.84,2.30,
0.954,-0.00,-0.85,3.71,0.77,-1.84,2.30,
0.955,-0.00,-0.85,3.71,0.80,-1.95,2.30,
0.955,-0.00,-0.85,3.71,0.84,-2.07,2.30,
0.959,-0.00,-0.85,3.71,0.88,-2.20,2.30,
0.959,-0.14,-1.21,4.38,0.88,-2.20,2.30,
0.961,-0.14,-1.21,4.38,0.94,-2.34,2.30,
0.963,-0.14,-1.21,4.38,1.00,-2.48,2.30,
0.963,-0.11,-1.53,4.78,1.00,-2.48,2.30,
0.966,-0.11,-1.53,4.78,1.07,-2.62,2.29,
0.969,0.04,-1.54,4.86,1.07,-2.62,2.29,
0.97,0.04,-1.54,4.86,1.15,-2.75,2.29,
0.971,0.04,-1.54,4.86,1.23,-2.87,2.28,
0.973,0.23,-1.36,4.62,1.23,-2.87,2.28,
0.973,0.23,-1.36,4.62,1.31,-2.98,2.27,
0.975,0.23,-1.36,4.62,1.40,-3.07,2.25,
0.978,0.46,-1.05,4.15,1.40,-3.07,2.25,
0.978,0.46,-1.05,4.15,1.48,-3.15,2.24,
0.981,0.46,-1.05,4.15,1.56,-3.21,2.23,
0.983,0.74,-0.70,3.54,1.56,-3.21,2.23,
0.983,0.74,-0.70,3.54,1.63,-3.26,2.22,
0.986,0.74,-0.70,3.54,1.70,-3.27,2.21,
0.988,1.15,-0.32,2.52,1.70,-3.27,2.21,
0.989,1.15,-0.32,2.52,1.76,-3.26,2.20,
0.991,1.15,-0.32,2.52,1.81,-3.21,2.19,
0.993,1.58,0.19,1.11,1.81,-3.21,2.19,
0.993,1.58,0.19,1.11,1.84,-3.11,2.18,
0.996,1.58,0.19,1.11,1.86,-2.99,2.16,
0.998,2.15,0.53,-0.32,1.86,-2.99,2.16,
0.998,2.15,0.53,-0.32,1.87,-2.84,2.14,
1.001,2.15,0.53,-0.32,1.86,-2.68,2.11,
1.005,2.77,0.66,-1.23,1.86,-2.68,2.11,
1.005,2.77,0.66,-1.23,1.84,-2.51,2.07,
1.006,2.77,0.66,-1.23,1.81,-2.34,2.04,
1.009,3.32,0.66,-1.61,1.81,-2.34,2.04,
1.01,3.32,0.66,-1.61,1.76,-2.18,2.00,
1.011,3.32,0.66,-1.61,1.71,-2.03,1.96,
1.013,3.32,0.66,-1.61,1.66,-1.88,1.92,
1.014,3.73,0.60,-1.59,1.66,-1.88,1.92,
1.016,3.73,0.60,-1.59,1.60,-1.75,1.88,
1.018,3.73,0.60,-1.59,1.53,-1.63,1.84,
1.019,4.11,0.47,-1.50,1.53,-1.63,1.84,
1.021,4.11,0.47,-1.50,1.47,-1.52,1.78,
1.023,4.11,0.47,-1.50,1.40,-1.41,1.73,
1.024,4.40,0.26,-1.32,1.40,-1.41,1.73,
1.026,4.40,0.26,-1.32,1.34,-1.31,1.66,
1.028,4.40,0.26,-1.32,1.28,-1.21,1.60,
1.029,4.52,-0.10,-1.20,1.28,-1.21,1.60,
1.031,4.52,-0.10,-1.20,1.22,-1.12,1.53,
1.033,4.35,-0.38,-1.02,1.22,-1.12,1.53,
1.034,4.35,-0.38,-1.02,1.17,-1.03,1.47,
1.037,4.35,-0.38,-1.02,1.13,-0.95,1.42,
1.039,3.91,-0.47,-0.72,1.13,-0.95,1.42,
1.039,3.91,-0.47,-0.72,1.11,-0.87,1.37,
1.041,3.91,-0.47,-0.72,1.09,-0.79,1.33,
1.043,3.26,-0.31,-0.50,1.09,-0.79,1.33,
1.044,3.26,-0.31,-0.50,1.08,-0.71,1.30,
1.046,3.26,-0.31,-0.50,1.08,-0.64,1.29,
1.05,3.26,-0.31,-0.50,1.08,-0.56,1.28,
1.05,2.54,0.05,-0.30,1.08,-0.56,1.28,
1.052,2.54,0.05,-0.30,1.09,-0.49,1.28,
1.054,2.54,0.05,-0.30,1.10,-0.43,1.28,
1.054,1.88,0.51,-0.10,1.10,-0.43,1.28,
1.056,1.88,0.51,-0.10,1.11,-0.37,1.29,
1.058,1.88,0.51,-0.10,1.12,-0.32,1.31,
1.059,1.34,0.94,0.05,1.12,-0.32,1.31,
1.061,1.34,0.94,0.05,1.14,-0.28,1.32,
1.063,1.34,0.94,0.05,1.14,-0.26,1.33,
1.064,1.03,1.15,0.31,1.14,-0.26,1.33,
1.066,1.03,1.15,0.31,1.15,-0.26,1.34,
1.069,0.89,1.07,0.65,1.15,-0.26,1.34,
1.07,0.89,1.07,0.65,1.16,-0.28,1.35,
1.071,0.89,1.07,0.65,1.16,-0.30,1.36,
1.073,0.83,0.85,0.99,1.16,-0.30,1.36,
1.074,0.83,0.85,0.99,1.17,-0.34,1.37,
1.076,0.83,0.85,0.99,1.17,-0.39,1.37,
1.078,0.72,0.56,1.30,1.17,-0.39,1.37,
1.078,0.72,0.56,1.30,1.18,-0.46,1.37,
1.082,0.72,0.56,1.30,1.19,-0.52,1.37,
1.084,0.72,0.56,1.30,1.20,-0.59,1.38,
1.084,0.59,0.40,1.50,1.20,-0.59,1.38,
1.087,0.59,0.40,1.50,1.22,-0.67,1.38,
1.089,0.59,0.40,1.50,1.25,-0.75,1.38,
1.089,0.49,0.30,1.89,1.25,-0.75,1.38,
1.091,0.49,0.30,1.89,1.28,-0.85,1.38,
1.093,0.49,0.30,1.89,1.32,-0.95,1.38,
1.094,0.42,0.26,2.38,1.32,-0.95,1.38,
1.096,0.42,0.26,2.38,1.36,-1.06,1.38,
1.099,0.42,0.26,2.38,1.42,-1.16,1.38,
1.1,0.44,0.23,2.80,1.42,-1.16,1.38,
1.102,0.44,0.23,2.80,1.47,-1.27,1.38,
1.105,0.48,0.22,3.18,1.47,-1.27,1.38,
1.105,0.48,0.22,3.18,1.54,-1.39,1.37,
1.106,0.48,0.22,3.18,1.61,-1.50,1.37,
1.109,0.48,0.22,3.18,1.68,-1.62,1.36,
1.109,0.46,0.18,3.41,1.68,-1.62,1.36,
1.111,0.46,0.18,3.41,1.76,-1.73,1.35,
1.116,0.46,0.18,3.41,1.85,-1.84,1.34,
1.116,0.41,0.27,3.47,1.85,-1.84,1.34,
1.116,0.41,0.27,3.47,1.93,-1.92,1.33,
1.121,0.33,0.61,3.35,1.93,-1.92,1.33,
1.122,0.33,0.61,3.35,2.02,-2.00,1.32,
1.122,0.33,0.61,3.35,2.11,-2.08,1.30,
1.123,0.33,0.61,3.35,2.18,-2.17,1.29,
1.124,0.47,0.56,3.06,2.18,-2.17,1.29,
1.126,0.47,0.56,3.06,2.26,-2.25,1.27,
1.129,0.73,0.23,2.51,2.26,-2.25,1.27,
1.129,0.73,0.23,2.51,2.32,-2.32,1.24,
1.131,0.73,0.23,2.51,2.37,-2.39,1.22,
1.134,1.00,-0.13,1.98,2.37,-2.39,1.22,
1.134,1.00,-0.13,1.98,2.41,-2.45,1.19,
1.136,1.00,-0.13,1.98,2.45,-2.51,1.15,
1.14,1.25,-0.48,1.48,2.45,-2.51,1.15,
1.14,1.25,-0.48,1.48,2.48,-2.55,1.11,
1.142,1.25,-0.48,1.48,2.50,-2.59,1.07,
1.145,1.38,-0.64,1.09,2.50,-2.59,1.07,
1.146,1.38,-0.64,1.09,2.52,-2.63,1.04,
1.146,1.38,-0.64,1.09,2.53,-2.68,1.00,
1.148,1.38,-0.64,1.09,2.54,-2.72,0.98,
1.149,1.21,-0.51,0.93,2.54,-2.72,0.98,
1.153,1.21,-0.51,0.93,2.54,-2.78,0.96,
1.155,0.87,-0.25,0.80,2.54,-2.78,0.96,
1.156,0.87,-0.25,0.80,2.54,-2.84,0.96,
1.157,0.87,-0.25,0.80,2.54,-2.89,0.97,
1.16,0.56,-0.19,0.61,2.54,-2.89,0.97,
1.161,0.56,-0.19,0.61,2.53,-2.94,0.98,
1.162,0.56,-0.19,0.61,2.53,-2.99,1.00,
1.167,0.46,-0.40,0.35,2.53,-2.99,1.00,
1.167,0.46,-0.40,0.35,2.53,-3.02,1.01,
1.168,0.46,-0.40,0.35,2.54,-3.06,1.03,
1.171,0.51,-0.75,0.28,2.54,-3.06,1.03,
1.172,0.51,-0.75,0.28,2.54,-3.09,1.05,
1.172,0.51,-0.75,0.28,2.54,-3.12,1.06,
1.177,0.75,-1.27,0.19,2.54,-3.12,1.06,
1.178,0.75,-1.27,0.19,2.55,-3.14,1.07,
1.178,0.75,-1.27,0.19,2.56,-3.16,1.07,
1.179,1.04,-1.78,0.07,2.56,-3.16,1.07,
1.18,1.04,-1.78,0.07,2.57,-3.17,1.06,
1.182,1.04,-1.78,0.07,2.58,-3.16,1.04,
1.184,1.43,-2.28,-0.06,2.58,-3.16,1.04,
1.184,1.43,-2.28,-0.06,2.60,-3.15,1.02,
1.188,1.43,-2.28,-0.06,2.62,-3.13,0.99,
1.19,1.83,-2.61,-0.08,2.62,-3.13,0.99,
1.19,1.83,-2.61,-0.08,2.64,-3.10,0.96,
1.192,1.83,-2.61,-0.08,2.67,-3.06,0.92,
1.195,2.10,-2.61,-0.24,2.67,-3.06,0.92,
1.195,2.10,-2.61,-0.24,2.70,-3.01,0.87,
1.197,2.10,-2.61,-0.24,2.73,-2.94,0.83,
1.199,2.19,-2.32,-0.54,2.73,-2.94,0.83,
1.199,2.19,-2.32,-0.54,2.77,-2.86,0.78,
1.208,2.19,-2.32,-0.54,2.80,-2.76,0.74,
1.209,2.08,-1.83,-0.89,2.80,-2.76,0.74,
1.209,2.08,-1.83,-0.89,2.82,-2.67,0.70,
1.21,2.08,-1.83,-0.89,2.84,-2.58,0.66,
1.21,1.80,-1.26,-1.26,2.84,-2.58,0.66,
1.211,1.80,-1.26,-1.26,2.85,-2.48,0.63,
1.212,1.80,-1.26,-1.26,2.86,-2.39,0.61,
1.215,1.59,-0.68,-1.76,2.86,-2.39,0.61,
1.216,1.59,-0.68,-1.76,2.86,-2.30,0.59,
1.217,1.59,-0.68,-1.76,2.85,-2.20,0.57,
1.221,1.56,-0.18,-2.44,2.85,-2.20,0.57,
1.222,1.56,-0.18,-2.44,2.82,-2.10,0.56,
1.222,1.56,-0.18,-2.44,2.79,-1.99,0.54,
1.226,1.56,-0.18,-2.44,2.75,-1.88,0.53,
1.227,1.69,0.04,-3.15,2.75,-1.88,0.53,
1.227,1.69,0.04,-3.15,2.71,-1.76,0.51,
1.23,2.00,-0.01,-3.75,2.71,-1.76,0.51,
1.23,2.00,-0.01,-3.75,2.66,-1.65,0.49,
1.231,2.00,-0.01,-3.75,2.60,-1.54,0.47,
1.236,2.35,-0.23,-4.14,2.60,-1.54,0.47,
1.237,2.35,-0.23,-4.14,2.54,-1.44,0.45,
1.238,2.35,-0.23,-4.14,2.49,-1.33,0.42,
1.24,2.78,-0.48,-4.45,2.49,-1.33,0.42,
1.241,2.78,-0.48,-4.45,2.43,-1.23,0.39,
1.243,2.78,-0.48,-4.45,2.36,-1.14,0.35,
1.245,3.20,-0.70,-4.54,2.36,-1.14,0.35,
1.245,3.20,-0.70,-4.54,2.30,-1.07,0.31,
1.247,3.20,-0.70,-4.54,2.23,-1.01,0.26,
1.249,3.48,-0.88,-4.45,2.23,-1.01,0.26,
1.25,3.48,-0.88,-4.45,2.16,-0.96,0.20,
1.257,3.48,-0.88,-4.45,2.09,-0.92,0.14,
1.258,3.62,-1.09,-4.28,2.09,-0.92,0.14,
1.259,3.62,-1.09,-4.28,2.02,-0.88,0.08,
1.259,3.62,-1.09,-4.28,1.95,-0.86,0.02,
1.26,3.67,-1.28,-4.17,1.95,-0.86,0.02,
1.261,3.67,-1.28,-4.17,1.88,-0.83,-0.04,
1.263,3.67,-1.28,-4.17,1.80,-0.80,-0.11,
1.265,3.60,-1.31,-4.10,1.80,-0.80,-0.11,
1.266,3.60,-1.31,-4.10,1.73,-0.77,-0.16,
1.267,3.60,-1.31,-4.10,1.66,-0.73,-0.22,
1.271,3.27,-1.22,-3.97,1.66,-0.73,-0.22,
1.273,3.27,-1.22,-3.97,1.59,-0.69,-0.26,
1.274,3.27,-1.22,-3.97,1.52,-0.64,-0.29,
1.274,2.71,-1.15,-3.81,1.52,-0.64,-0.29,
1.275,2.71,-1.15,-3.81,1.45,-0.58,-0.31,
1.276,2.71,-1.15,-3.81,1.39,-0.52,-0.33,
1.28,2.05,-1.07,-3.73,1.39,-0.52,-0.33,
1.28,2.05,-1.07,-3.73,1.33,-0.44,-0.33,
1.282,2.05,-1.07,-3.73,1.28,-0.35,-0.32,
1.285,1.39,-1.01,-3.61,1.28,-0.35,-0.32,
1.286,1.39,-1.01,-3.61,1.23,-0.26,-0.31,
1.287,1.39,-1.01,-3.61,1.18,-0.15,-0.29,
1.291,0.85,-1.00,-3.43,1.18,-0.15,-0.29,
1.292,0.85,-1.00,-3.43,1.13,-0.05,-0.26,
1.293,0.85,-1.00,-3.43,1.08,0.05,-0.24,
1.295,0.85,-1.00,-3.43,1.04,0.15,-0.21,
1.296,0.58,-1.01,-3.14,1.04,0.15,-0.21,
1.297,0.58,-1.01,-3.14,1.01,0.24,-0.18,
1.299,0.55,-1.00,-2.84,1.01,0.24,-0.18,
1.3,0.55,-1.00,-2.84,0.98,0.33,-0.16,
1.303,0.55,-1.00,-2.84,0.95,0.41,-0.14,
1.306,0.58,-0.91,-2.63,0.95,0.41,-0.14,
1.307,0.58,-0.91,-2.63,0.92,0.48,-0.13,
1.307,0.58,-0.91,-2.63,0.89,0.54,-0.12,
1.309,0.53,-0.72,-2.41,0.89,0.54,-0.12,
1.31,0.53,-0.72,-2.41,0.86,0.59,-0.12,
1.311,0.53,-0.72,-2.41,0.83,0.63,-0.12,
1.314,0.36,-0.48,-2.32,0.83,0.63,-0.12,
1.315,0.36,-0.48,-2.32,0.81,0.67,-0.12,
1.317,0.36,-0.48,-2.32,0.79,0.71,-0.12,
1.325,0.10,-0.28,-2.51,0.79,0.71,-0.12,
1.326,0.10,-0.28,-2.51,0.75,0.74,-0.12,
1.327,0.10,-0.28,-2.51,0.71,0.75,-0.12,
1.328,-0.18,-0.14,-3.24,0.71,0.75,-0.12,
1.328,-0.18,-0.14,-3.24,0.66,0.76,-0.11,
1.329,-0.18,-0.14,-3.24,0.59,0.77,-0.11,
1.33,-0.44,-0.04,-4.72,0.59,0.77,-0.11,
1.337,-0.44,-0.04,-4.72,0.49,0.77,-0.10,
1.338,-0.44,-0.04,-4.72,0.37,0.77,-0.09,
1.338,-0.72,-0.00,-6.67,0.37,0.77,-0.09,
1.339,-0.72,-0.00,-6.67,0.22,0.76,-0.09,
1.339,-0.72,-0.00,-6.67,0.06,0.75,-0.08,
1.342,-0.72,-0.00,-6.67,-0.12,0.74,-0.07,
1.343,-1.02,0.09,-7.82,-0.12,0.74,-0.07,
1.344,-1.02,0.09,-7.82,-0.29,0.74,-0.07,
1.349,-1.02,0.03,-7.46,-0.29,0.74,-0.07,
1.35,-1.02,0.03,-7.46,-0.43,0.75,-0.08,
1.352,-1.02,0.03,-7.46,-0.53,0.76,-0.08,
1.352,-1.02,0.03,-7.46,-0.59,0.77,-0.09,
1.353,-0.81,-0.23,-4.93,-0.59,0.77,-0.09,
1.355,-0.75,-0.47,-1.89,-0.59,0.77,-0.09,
1.355,-0.75,-0.47,-1.89,-0.60,0.77,-0.10,
1.356,-0.75,-0.47,-1.89,-0.59,0.76,-0.11,
1.358,-0.75,-0.47,-1.89,-0.54,0.73,-0.10,
1.36,-0.89,-0.51,0.53,-0.54,0.73,-0.10,
1.36,-0.89,-0.51,0.53,-0.48,0.68,-0.10,
1.363,-0.89,-0.51,0.53,-0.40,0.61,-0.09,
1.366,-1.09,-0.52,2.00,-0.40,0.61,-0.09,
1.366,-1.09,-0.52,2.00,-0.32,0.53,-0.07,
1.368,-1.09,-0.52,2.00,-0.24,0.44,-0.06,
1.372,-1.24,-0.59,2.70,-0.24,0.44,-0.06,
1.373,-1.24,-0.59,2.70,-0.16,0.33,-0.04,
1.373,-1.24,-0.59,2.70,-0.08,0.22,-0.02,
1.375,-1.37,-0.65,2.77,-0.08,0.22,-0.02,
1.375,-1.37,-0.65,2.77,-0.02,0.10,-0.01,
1.377,-1.37,-0.65,2.77,0.04,-0.01,-0.00,
1.381,-1.48,-0.67,2.33,0.04,-0.01,-0.00,
1.381,-1.48,-0.67,2.33,0.09,-0.12,0.01,
1.382,-1.48,-0.67,2.33,0.13,-0.23,0.02,
1.386,-1.63,-0.62,1.78,0.13,-0.23,0.02,
1.387,-1.63,-0.62,1.78,0.15,-0.33,0.03,
1.39,-1.63,-0.62,1.78,0.18,-0.42,0.04,
1.392,-1.64,-0.53,1.44,0.18,-0.42,0.04,
1.392,-1.64,-0.53,1.44,0.21,-0.51,0.05,
1.393,-1.64,-0.53,1.44,0.23,-0.58,0.06,
1.395,-1.47,-0.36,1.21,0.23,-0.58,0.06,
1.396,-1.47,-0.36,1.21,0.26,-0.65,0.07,
1.397,-1.47,-0.36,1.21,0.28,-0.71,0.07,
1.4,-1.35,-0.08,0.84,0.28,-0.71,0.07,
1.4,-1.35,-0.08,0.84,0.31,-0.75,0.08,
1.403,-1.35,-0.08,0.84,0.32,-0.78,0.09,
1.405,-1.26,0.17,0.30,0.32,-0.78,0.09,
1.406,-1.26,0.17,0.30,0.34,-0.80,0.10,
1.407,-1.26,0.17,0.30,0.35,-0.81,0.11,
1.41,-1.00,0.28,-0.30,0.35,-0.81,0.11,
1.41,-1.00,0.28,-0.30,0.36,-0.81,0.12,
1.413,-1.00,0.28,-0.30,0.36,-0.79,0.12,
1.415,-0.52,0.21,-0.76,0.36,-0.79,0.12,
1.416,-0.52,0.21,-0.76,0.36,-0.77,0.13,
1.418,-0.52,0.21,-0.76,0.35,-0.73,0.12,
1.423,-0.05,0.12,-0.98,0.35,-0.73,0.12,
1.424,-0.05,0.12,-0.98,0.35,-0.69,0.11,
1.424,-0.05,0.12,-0.98,0.35,-0.64,0.11,
1.425,0.27,0.10,-0.92,0.35,-0.64,0.11,
1.425,0.27,0.10,-0.92,0.35,-0.59,0.09,
1.428,0.27,0.10,-0.92,0.35,-0.53,0.08,
1.43,0.27,0.10,-0.92,0.35,-0.48,0.07,
1.43,0.41,0.15,-0.76,0.35,-0.48,0.07,
1.434,0.41,0.15,-0.76,0.36,-0.42,0.05,
1.435,0.66,0.25,-0.87,0.36,-0.42,0.05,
1.438,0.66,0.25,-0.87,0.35,-0.37,0.04,
1.439,0.66,0.25,-0.87,0.34,-0.32,0.02,
1.441,0.91,0.34,-1.40,0.34,-0.32,0.02,
1.441,0.91,0.34,-1.40,0.32,-0.26,-0.01,
1.442,0.91,0.34,-1.40,0.28,-0.22,-0.03,
1.445,0.77,0.42,-1.84,0.28,-0.22,-0.03,
1.445,0.77,0.42,-1.84,0.25,-0.17,-0.05,
1.447,0.77,0.42,-1.84,0.22,-0.13,-0.06,
1.45,0.31,0.60,-1.12,0.22,-0.13,-0.06,
1.45,0.31,0.60,-1.12,0.21,-0.08,-0.06,
1.455,0.31,0.60,-1.12,0.22,-0.04,-0.06,
1.456,-0.07,0.70,-0.04,0.22,-0.04,-0.06,
1.456,-0.07,0.70,-0.04,0.24,-0.00,-0.05,
1.458,-0.07,0.70,-0.04,0.26,0.03,-0.05,
1.46,-0.36,0.63,0.22,0.26,0.03,-0.05,
1.461,-0.36,0.63,0.22,0.28,0.07,-0.04,
1.462,-0.36,0.63,0.22,0.29,0.10,-0.02,
1.466,-0.58,0.55,0.33,0.29,0.10,-0.02,
1.467,-0.58,0.55,0.33,0.30,0.12,-0.00,
1.467,-0.58,0.55,0.33,0.31,0.14,0.01,
1.47,-0.58,0.55,0.33,0.32,0.15,0.03,
1.471,-0.69,0.52,0.54,0.32,0.15,0.03,
1.474,-0.69,0.52,0.54,0.32,0.14,0.04,
1.476,-0.62,0.47,0.54,0.32,0.14,0.04,
1.476,-0.62,0.47,0.54,0.32,0.13,0.05,
1.477,-0.62,0.47,0.54,0.30,0.12,0.06,
1.48,-0.46,0.46,0.34,0.30,0.12,0.06,
1.48,-0.46,0.46,0.34,0.28,0.10,0.06,
1.482,-0.46,0.46,0.34,0.26,0.08,0.07,
1.486,-0.13,0.53,0.45,0.26,0.08,0.07,
1.486,-0.13,0.53,0.45,0.25,0.06,0.06,
1.489,-0.13,0.53,0.45,0.25,0.05,0.06,
1.49,0.19,0.72,0.84,0.25,0.05,0.06,
1.491,0.19,0.72,0.84,0.25,0.03,0.06,
1.494,0.19,0.72,0.84,0.25,0.01,0.06,
1.496,0.47,0.86,1.05,0.25,0.01,0.06,
1.497,0.47,0.86,1.05,0.26,-0.02,0.06,
1.502,0.47,0.86,1.05,0.27,-0.04,0.05,
1.502,0.84,0.89,0.97,0.27,-0.04,0.05,
1.503,0.84,0.89,0.97,0.27,-0.08,0.04,
1.503,0.84,0.89,0.97,0.27,-0.11,0.03,
1.506,1.28,0.79,0.73,0.27,-0.11,0.03,
1.507,1.28,0.79,0.73,0.27,-0.15,0.00,
1.508,1.28,0.79,0.73,0.27,-0.20,-0.03,
1.51,1.50,0.82,0.60,0.27,-0.20,-0.03,
1.511,1.50,0.82,0.60,0.27,-0.24,-0.05,
1.513,1.50,0.82,0.60,0.27,-0.29,-0.08,
1.515,1.43,0.92,0.56,0.27,-0.29,-0.08,
1.516,1.43,0.92,0.56,0.27,-0.34,-0.11,
1.519,1.43,0.92,0.56,0.27,-0.38,-0.13,
1.525,1.16,1.05,0.17,0.27,-0.38,-0.13,
1.526,1.16,1.05,0.17,0.27,-0.42,-0.15,
1.526,1.16,1.05,0.17,0.26,-0.44,-0.16,
1.527,0.89,1.02,-0.37,0.26,-0.44,-0.16,
1.527,0.89,1.02,-0.37,0.25,-0.46,-0.17,
1.528,0.89,1.02,-0.37,0.24,-0.46,-0.17,
1.53,0.37,0.83,-1.13,0.24,-0.46,-0.17,
1.53,0.37,0.83,-1.13,0.21,-0.46,-0.17,
1.533,0.37,0.83,-1.13,0.17,-0.45,-0.15,
1.536,-0.06,0.79,-1.98,0.17,-0.45,-0.15,
1.541,-0.06,0.79,-1.98,0.12,-0.44,-0.14,
1.542,-0.06,0.79,-1.98,0.07,-0.42,-0.13,
1.543,-0.09,0.72,-1.81,0.07,-0.42,-0.13,
1.543,-0.09,0.72,-1.81,0.03,-0.41,-0.12,
1.544,-0.09,0.72,-1.81,0.00,-0.40,-0.11,
1.545,-0.32,0.62,-1.29,0.00,-0.40,-0.11,
1.546,-0.32,0.62,-1.29,-0.03,-0.38,-0.09,
1.549,-0.32,0.62,-1.29,-0.04,-0.35,-0.08,
1.55,-0.70,0.22,-0.48,-0.04,-0.35,-0.08,
1.55,-0.70,0.22,-0.48,-0.03,-0.32,-0.06,
1.557,-0.70,0.22,-0.48,-0.00,-0.28,-0.04,
1.558,-1.01,0.15,0.43,-0.00,-0.28,-0.04,
1.558,-1.01,0.15,0.43,0.03,-0.24,-0.01,
1.559,-1.01,0.15,0.43,0.06,-0.22,0.02,
1.561,-1.50,0.12,0.93,0.06,-0.22,0.02,
1.561,-1.50,0.12,0.93,0.10,-0.21,0.06,
1.563,-1.50,0.12,0.93,0.13,-0.21,0.09,
1.566,-1.31,-0.08,1.29,0.13,-0.21,0.09,
1.566,-1.31,-0.08,1.29,0.17,-0.21,0.11,
1.568,-1.31,-0.08,1.29,0.20,-0.23,0.13,
1.571,-1.17,-0.26,1.59,0.20,-0.23,0.13,
1.571,-1.17,-0.26,1.59,0.23,-0.25,0.14,
1.572,-1.17,-0.26,1.59,0.27,-0.28,0.14,
1.576,-1.14,-0.18,1.74,0.27,-0.28,0.14,
1.576,-1.14,-0.18,1.74,0.29,-0.32,0.15,
1.578,-1.14,-0.18,1.74,0.32,-0.36,0.15,
1.58,-1.25,0.11,1.49,0.32,-0.36,0.15,
1.581,-1.25,0.11,1.49,0.34,-0.40,0.16,
1.582,-1.25,0.11,1.49,0.36,-0.44,0.18,
1.586,-1.61,0.19,0.90,0.36,-0.44,0.18,
1.589,-1.61,0.19,0.90,0.38,-0.46,0.20,
1.591,-2.13,0.79,-0.11,0.38,-0.46,0.20,
1.591,-2.13,0.79,-0.11,0.38,-0.47,0.23,
1.592,-2.13,0.79,-0.11,0.37,-0.48,0.27,
1.592,-2.13,0.79,-0.11,0.35,-0.48,0.32,
1.595,-1.87,0.76,-0.90,0.35,-0.48,0.32,
1.595,-1.87,0.76,-0.90,0.32,-0.48,0.35,
1.597,-1.87,0.76,-0.90,0.29,-0.49,0.37,
1.6,-0.72,0.00,-1.04,0.29,-0.49,0.37,
1.601,-0.72,0.00,-1.04,0.26,-0.48,0.38,
1.604,-0.72,0.00,-1.04,0.24,-0.48,0.40,
1.607,-0.40,0.37,-0.39,0.24,-0.48,0.40,
1.608,-0.40,0.37,-0.39,0.22,-0.50,0.42,
1.608,-0.40,0.37,-0.39,0.21,-0.52,0.44,
1.61,0.09,0.63,0.18,0.21,-0.52,0.44,
1.611,0.09,0.63,0.18,0.21,-0.55,0.46,
1.612,0.09,0.63,0.18,0.22,-0.58,0.48,
1.617,0.45,0.84,0.40,0.22,-0.58,0.48,
1.617,0.45,0.84,0.40,0.22,-0.62,0.49,
1.618,0.45,0.84,0.40,0.22,-0.67,0.49,
1.625,1.58,0.48,0.22,0.22,-0.67,0.49,
1.626,1.58,0.48,0.22,0.21,-0.72,0.47,
1.627,1.58,0.48,0.22,0.19,-0.78,0.44,
1.627,2.03,0.52,0.16,0.19,-0.78,0.44,
1.628,2.03,0.52,0.16,0.18,-0.84,0.41,
1.628,2.03,0.52,0.16,0.17,-0.89,0.39,
1.633,2.16,0.44,0.27,0.17,-0.89,0.39,
1.633,2.16,0.44,0.27,0.17,-0.93,0.37,
1.634,2.16,0.44,0.27,0.17,-0.94,0.35,
1.638,2.13,0.11,0.07,0.17,-0.94,0.35,
1.639,2.13,0.11,0.07,0.17,-0.93,0.34,
1.64,2.13,0.11,0.07,0.17,-0.90,0.34,
1.64,2.13,0.11,0.07,0.17,-0.85,0.34,
1.644,1.97,-0.08,-0.40,0.17,-0.85,0.34,
1.644,1.97,-0.08,-0.40,0.16,-0.78,0.34,
1.646,2.24,-0.18,-1.19,0.16,-0.78,0.34,
1.646,2.24,-0.18,-1.19,0.14,-0.69,0.34,
1.649,2.24,-0.18,-1.19,0.12,-0.58,0.33,
1.651,2.01,-0.16,-1.41,0.12,-0.58,0.33,
1.652,2.01,-0.16,-1.41,0.11,-0.46,0.33,
1.655,2.01,-0.16,-1.41,0.08,-0.34,0.33,
1.656,1.91,-0.84,-1.81,0.08,-0.34,0.33,
1.659,1.91,-0.84,-1.81,0.06,-0.21,0.33,
1.659,1.91,-0.84,-1.81,0.03,-0.09,0.32,
1.661,1.64,-0.74,-1.49,0.03,-0.09,0.32,
1.662,1.64,-0.74,-1.49,0.02,0.02,0.31,
1.663,1.64,-0.74,-1.49,0.01,0.12,0.32,
1.668,1.37,-0.75,-1.13,0.01,0.12,0.32,
1.668,1.37,-0.75,-1.13,0.00,0.20,0.31,
1.669,1.37,-0.75,-1.13,-0.00,0.26,0.32,
1.676,0.53,-0.75,-0.79,-0.00,0.26,0.32,
1.677,0.53,-0.75,-0.79,-0.00,0.30,0.34,
1.678,0.53,-0.75,-0.79,-0.00,0.32,0.35,
1.679,0.92,-0.58,-0.88,-0.00,0.32,0.35,
1.679,0.92,-0.58,-0.88,0.00,0.33,0.33,
1.68,0.92,-0.58,-0.88,0.02,0.32,0.34,
1.681,-0.06,-0.12,-0.85,0.02,0.32,0.34,
1.681,-0.06,-0.12,-0.85,0.04,0.30,0.35,
1.684,-0.06,-0.12,-0.85,0.07,0.28,0.36,
1.688,-0.44,0.12,-0.89,0.07,0.28,0.36,
1.689,-0.44,0.12,-0.89,0.11,0.27,0.37,
1.689,-0.44,0.12,-0.89,0.17,0.25,0.38,
1.69,-0.44,0.12,-0.89,0.24,0.24,0.38,
1.691,-0.62,0.32,-0.25,0.24,0.24,0.38,
1.693,-0.62,0.32,-0.25,0.34,0.21,0.38,
1.696,-1.07,0.26,0.63,0.34,0.21,0.38,
1.697,-1.07,0.26,0.63,0.43,0.18,0.38,
1.697,-1.07,0.26,0.63,0.54,0.12,0.40,
1.702,-0.98,0.05,1.47,0.54,0.12,0.40,
1.702,-0.98,0.05,1.47,0.62,0.03,0.40,
1.708,-0.98,0.05,1.47,0.68,-0.10,0.38,
1.709,-0.45,0.17,1.99,0.68,-0.10,0.38,
1.71,-0.45,0.17,1.99,0.72,-0.25,0.36,
1.71,-0.45,0.17,1.99,0.75,-0.40,0.37,
1.713,-0.63,0.28,2.31,0.75,-0.40,0.37,
1.713,-0.63,0.28,2.31,0.78,-0.53,0.37,
1.714,-0.63,0.28,2.31,0.81,-0.63,0.37,
1.718,0.35,-0.15,2.70,0.81,-0.63,0.37,
1.719,0.35,-0.15,2.70,0.85,-0.70,0.34,
1.719,0.35,-0.15,2.70,0.90,-0.73,0.30,
1.723,2.02,-0.30,3.76,0.90,-0.73,0.30,
1.724,2.02,-0.30,3.76,0.98,-0.70,0.23,
1.725,2.02,-0.30,3.76,1.09,-0.59,0.15,
1.726,3.08,0.61,3.67,1.09,-0.59,0.15,
1.726,3.08,0.61,3.67,1.20,-0.38,0.07,
1.729,3.08,0.61,3.67,1.25,-0.07,0.03,
1.731,-0.91,0.85,-1.85,1.25,-0.07,0.03,
1.732,-0.91,0.85,-1.85,1.21,0.29,0.06,
1.733,-0.91,0.85,-1.85,1.03,0.45,0.27,
1.738,-12.35,1.74,-5.34,1.03,0.45,0.27,
1.739,-12.35,1.74,-5.34,0.69,0.41,0.61,
1.74,-12.35,1.74,-5.34,0.32,0.35,0.80,
1.741,-7.73,-3.27,-5.90,0.32,0.35,0.80,
1.744,-7.73,-3.27,-5.90,-0.03,0.29,0.83,
1.745,-7.73,-3.27,-5.90,-0.28,0.29,0.78,
1.746,-3.46,-2.68,-3.23,-0.28,0.29,0.78,
1.746,-3.46,-2.68,-3.23,-0.41,0.33,0.70,
1.748,-3.46,-2.68,-3.23,-0.43,0.41,0.65,
1.75,-2.73,0.77,-0.19,-0.43,0.41,0.65,
1.751,-2.73,0.77,-0.19,-0.37,0.51,0.64,
1.753,-2.73,0.77,-0.19,-0.26,0.62,0.66,
1.756,-2.14,1.79,0.85,-0.26,0.62,0.66,
1.756,-2.14,1.79,0.85,-0.15,0.70,0.67,
1.759,-2.14,1.79,0.85,-0.08,0.74,0.66,
1.762,-0.41,0.80,-0.08,-0.08,0.74,0.66,
1.763,-0.41,0.80,-0.08,-0.04,0.73,0.63,
1.763,-0.41,0.80,-0.08,-0.04,0.68,0.55,
1.766,1.41,-0.16,0.14,-0.04,0.68,0.55,
1.767,1.41,-0.16,0.14,-0.03,0.59,0.45,
1.768,1.41,-0.16,0.14,-0.00,0.53,0.35,
1.772,0.49,0.45,1.40,-0.00,0.53,0.35,
1.773,0.49,0.45,1.40,0.06,0.49,0.30,
1.777,0.49,0.45,1.40,0.15,0.50,0.30,
1.777,-1.80,1.73,1.92,0.15,0.50,0.30,
1.778,-1.80,1.73,1.92,0.24,0.52,0.32,
1.778,-1.80,1.73,1.92,0.31,0.51,0.31,
1.781,0.79,0.33,1.39,0.31,0.51,0.31,
1.782,0.79,0.33,1.39,0.33,0.43,0.24,
1.784,0.79,0.33,1.39,0.32,0.31,0.14,
1.787,2.37,1.01,0.78,0.32,0.31,0.14,
1.788,2.37,1.01,0.78,0.30,0.20,0.04,
1.789,2.37,1.01,0.78,0.31,0.13,-0.05,
1.791,2.37,1.01,0.78,0.34,0.12,-0.11,
1.792,1.76,2.34,0.32,0.34,0.12,-0.11,
1.793,1.76,2.34,0.32,0.36,0.15,-0.14,
1.797,0.01,2.81,-1.34,0.36,0.15,-0.14,
1.798,0.01,2.81,-1.34,0.37,0.23,-0.14,
1.798,0.01,2.81,-1.34,0.37,0.35,-0.12,
1.801,-0.39,2.03,-2.63,0.37,0.35,-0.12,
1.802,-0.39,2.03,-2.63,0.34,0.46,-0.11,
1.807,-0.39,2.03,-2.63,0.28,0.55,-0.10,
1.808,0.21,1.52,-2.81,0.28,0.55,-0.10,
1.809,0.21,1.52,-2.81,0.21,0.60,-0.09,
1.81,0.21,1.52,-2.81,0.13,0.65,-0.07,
1.812,-0.09,2.27,-2.81,0.13,0.65,-0.07,
1.812,-0.09,2.27,-2.81,0.05,0.70,-0.04,
1.814,-0.09,2.27,-2.81,-0.01,0.74,0.00,
1.816,-0.59,2.97,-2.34,-0.01,0.74,0.00,
1.817,-0.59,2.97,-2.34,-0.06,0.76,0.06,
1.818,-0.59,2.97,-2.34,-0.10,0.78,0.11,
1.829,-0.76,3.33,-1.78,-0.10,0.78,0.11,
1.83,-0.76,3.33,-1.78,-0.13,0.78,0.18,
1.831,-0.76,3.33,-1.78,-0.13,0.76,0.24,
1.831,-0.90,5.47,0.72,-0.13,0.76,0.24,
1.832,-0.90,5.47,0.72,-0.10,0.66,0.34,
1.833,-0.90,5.47,0.72,-0.02,0.44,0.42,
1.834,2.54,7.14,5.59,-0.02,0.44,0.42,
1.841,2.54,7.14,5.59,0.08,0.20,0.42,
1.841,2.54,7.14,5.59,0.15,-0.02,0.33,
1.842,5.48,1.90,3.64,0.15,-0.02,0.33,
1.842,5.48,1.90,3.64,0.17,-0.19,0.20,
1.843,5.48,1.90,3.64,0.15,-0.35,0.08,
1.843,3.26,0.76,2.07,0.15,-0.35,0.08,
1.844,3.26,0.76,2.07,0.09,-0.50,0.02,
1.846,3.26,0.76,2.07,-0.00,-0.62,0.05,
1.846,-0.62,2.72,0.98,-0.00,-0.62,0.05,
1.847,-0.62,2.72,0.98,-0.12,-0.70,0.16,
1.849,-0.62,2.72,0.98,-0.26,-0.73,0.30,
1.852,-2.03,3.70,-0.79,-0.26,-0.73,0.30,
1.852,-2.03,3.70,-0.79,-0.41,-0.71,0.45,
1.86,-2.03,3.70,-0.79,-0.57,-0.63,0.60,
1.861,-2.03,3.70,-0.79,-0.74,-0.51,0.74,
1.861,-1.58,3.44,-2.86,-0.74,-0.51,0.74,
1.861,-1.58,3.44,-2.86,-0.91,-0.35,0.87,
1.862,-0.79,2.84,-4.21,-0.91,-0.35,0.87,
1.862,-0.79,2.84,-4.21,-1.07,-0.18,0.99,
1.864,-0.79,2.84,-4.21,-1.22,0.00,1.10,
1.867,-0.39,1.98,-4.66,-1.22,0.00,1.10,
1.868,-0.39,1.98,-4.66,-1.37,0.17,1.21,
1.869,-0.39,1.98,-4.66,-1.53,0.31,1.31,
1.872,-0.39,1.98,-4.66,-1.68,0.44,1.42,
1.873,-0.68,1.24,-4.58,-1.68,0.44,1.42,
1.874,-0.68,1.24,-4.58,-1.80,0.55,1.50,
1.876,-0.61,0.97,-3.20,-1.80,0.55,1.50,
1.877,-0.61,0.97,-3.20,-1.89,0.63,1.57,
1.879,-0.61,0.97,-3.20,-1.94,0.67,1.61,
1.881,0.08,2.41,-0.48,-1.94,0.67,1.61,
1.882,0.08,2.41,-0.48,-1.93,0.68,1.61,
1.883,0.08,2.41,-0.48,-1.81,0.67,1.57,
1.887,0.58,5.49,3.81,-1.81,0.67,1.57,
1.888,0.58,5.49,3.81,-1.68,0.49,1.54,
1.889,0.58,5.49,3.81,-1.59,0.24,1.49,
1.891,0.66,2.04,2.81,-1.59,0.24,1.49,
1.892,0.66,2.04,2.81,-1.52,-0.01,1.43,
1.893,0.66,2.04,2.81,-1.43,-0.25,1.36,
1.896,-0.79,0.39,4.58,-1.43,-0.25,1.36,
1.897,-0.79,0.39,4.58,-1.30,-0.50,1.31,
1.898,-0.79,0.39,4.58,-1.16,-0.78,1.31,
1.902,-3.55,0.23,5.27,-1.16,-0.78,1.31,
1.902,-3.55,0.23,5.27,-1.03,-1.06,1.35,
1.905,-3.55,0.23,5.27,-0.88,-1.30,1.42,
1.906,-5.60,0.61,4.17,-0.88,-1.30,1.42,
1.908,-5.60,0.61,4.17,-0.75,-1.48,1.53,
1.909,-5.60,0.61,4.17,-0.62,-1.57,1.65,
1.912,-6.51,-0.77,0.99,-0.62,-1.57,1.65,
1.913,-6.51,-0.77,0.99,-0.53,-1.58,1.78,
1.913,-6.51,-0.77,0.99,-0.46,-1.46,1.91,
1.917,-6.50,-2.26,-4.16,-0.46,-1.46,1.91,
1.918,-6.50,-2.26,-4.16,-0.41,-1.22,2.04,
1.925,-6.50,-2.26,-4.16,-0.40,-0.93,2.17,
1.926,-5.60,-2.35,-7.02,-0.40,-0.93,2.17,
1.926,-5.60,-2.35,-7.02,-0.42,-0.66,2.29,
1.927,-5.60,-2.35,-7.02,-0.47,-0.41,2.42,
1.927,-4.25,-2.12,-6.50,-0.47,-0.41,2.42,
1.928,-4.25,-2.12,-6.50,-0.54,-0.22,2.54,
1.928,-4.25,-2.12,-6.50,-0.60,-0.08,2.62,
1.933,-2.43,-2.49,-4.54,-0.60,-0.08,2.62,
1.934,-2.43,-2.49,-4.54,-0.65,0.03,2.68,
1.937,-2.43,-2.49,-4.54,-0.67,0.11,2.70,
1.937,-2.43,-2.49,-4.54,-0.68,0.16,2.68,
1.938,-0.27,-2.90,-2.51,-0.68,0.16,2.68,
1.941,-0.27,-2.90,-2.51,-0.65,0.19,2.64,
1.942,-0.27,-2.90,-2.51,-0.59,0.20,2.59,
1.943,0.58,-2.46,-0.32,-0.59,0.20,2.59,
1.945,0.58,-2.46,-0.32,-0.50,0.19,2.53,
1.947,0.52,-1.65,1.33,-0.50,0.19,2.53,
1.948,0.52,-1.65,1.33,-0.40,0.17,2.49,
1.949,0.52,-1.65,1.33,-0.29,0.15,2.46,
1.952,0.46,-1.59,2.02,-0.29,0.15,2.46,
1.953,0.46,-1.59,2.02,-0.18,0.12,2.41,
1.956,0.46,-1.59,2.02,-0.08,0.08,2.36,
1.957,0.46,-1.59,2.02,0.01,0.05,2.30,
1.958,0.91,-1.58,1.92,0.01,0.05,2.30,
1.958,0.91,-1.58,1.92,0.08,0.03,2.24,
1.962,0.88,-1.31,1.07,0.08,0.03,2.24,
1.963,0.88,-1.31,1.07,0.15,0.04,2.18,
1.965,0.88,-1.31,1.07,0.19,0.07,2.12,
1.968,0.36,-0.52,-0.07,0.19,0.07,2.12,
1.968,0.36,-0.52,-0.07,0.23,0.11,2.08,
1.971,0.36,-0.52,-0.07,0.26,0.17,2.05,
1.972,0.05,-0.20,-0.78,0.26,0.17,2.05,
1.973,0.05,-0.20,-0.78,0.30,0.25,2.01,
1.974,0.05,-0.20,-0.78,0.33,0.31,1.96,
1.977,0.72,-1.42,-0.49,0.33,0.31,1.96,
1.978,0.72,-1.42,-0.49,0.37,0.36,1.90,
1.98,0.72,-1.42,-0.49,0.43,0.40,1.84,
1.982,1.65,-3.20,0.69,0.43,0.40,1.84,
1.983,1.65,-3.20,0.69,0.49,0.44,1.77,
1.984,1.65,-3.20,0.69,0.56,0.44,1.68,
1.988,2.72,-5.83,1.79,0.56,0.44,1.68,
1.99,2.72,-5.83,1.79,0.61,0.40,1.56,
1.99,2.72,-5.83,1.79,0.65,0.35,1.41,
1.993,2.72,-5.83,1.79,0.67,0.30,1.25,
1.994,4.48,-8.11,2.34,0.67,0.30,1.25,
1.995,4.48,-8.11,2.34,0.69,0.26,1.08,
1.996,5.73,-8.98,2.03,0.69,0.26,1.08,
1.997,5.73,-8.98,2.03,0.69,0.25,0.92,
2.005,5.73,-8.98,2.03,0.69,0.23,0.76,
2.006,5.34,-8.12,1.59,0.69,0.23,0.76,
2.009,5.34,-8.12,1.59,0.69,0.19,0.62,
2.009,5.34,-8.12,1.59,0.69,0.16,0.51,
2.01,3.47,-5.83,0.63,0.69,0.16,0.51,
2.01,3.47,-5.83,0.63,0.68,0.16,0.41,
2.011,3.47,-5.83,0.63,0.67,0.18,0.36,
2.015,1.13,-2.98,-0.54,0.67,0.18,0.36,
2.016,1.13,-2.98,-0.54,0.64,0.19,0.34,
2.016,1.13,-2.98,-0.54,0.61,0.23,0.36,
2.017,0.06,-0.69,-1.63,0.61,0.23,0.36,
2.017,0.06,-0.69,-1.63,0.57,0.30,0.42,
2.019,0.06,-0.69,-1.63,0.52,0.36,0.48,
2.024,0.44,0.48,-1.98,0.52,0.36,0.48,
2.025,0.44,0.48,-1.98,0.49,0.41,0.54,
2.025,0.44,0.48,-1.98,0.45,0.44,0.58,
2.028,1.57,0.01,-1.55,0.45,0.44,0.58,
2.028,1.57,0.01,-1.55,0.43,0.45,0.61,
2.03,1.57,0.01,-1.55,0.40,0.43,0.60,
2.032,2.33,-2.45,-0.72,0.40,0.43,0.60,
2.032,2.33,-2.45,-0.72,0.36,0.41,0.55,
2.033,2.33,-2.45,-0.72,0.31,0.39,0.48,
2.037,2.16,-5.70,-0.15,0.31,0.39,0.48,
2.038,2.16,-5.70,-0.15,0.26,0.36,0.39,
2.039,2.16,-5.70,-0.15,0.22,0.33,0.28,
2.042,1.73,-7.67,0.39,0.22,0.33,0.28,
2.043,1.73,-7.67,0.39,0.18,0.30,0.18,
2.044,1.73,-7.67,0.39,0.16,0.30,0.08,
2.048,1.19,-8.01,0.53,0.16,0.30,0.08,
2.048,1.19,-8.01,0.53,0.15,0.29,0.00,
2.049,1.19,-8.01,0.53,0.15,0.27,-0.05,
2.052,0.53,-6.36,1.07,0.15,0.27,-0.05,
2.056,0.53,-6.36,1.07,0.16,0.23,-0.07,
2.057,0.53,-6.36,1.07,0.18,0.20,-0.11,
2.057,0.81,-4.12,0.65,0.18,0.20,-0.11,
2.058,0.81,-4.12,0.65,0.19,0.17,-0.15,
2.059,0.81,-4.12,0.65,0.20,0.18,-0.20,
2.063,1.44,-3.51,-0.65,0.20,0.18,-0.20,
2.064,1.44,-3.51,-0.65,0.20,0.22,-0.26,
2.064,1.44,-3.51,-0.65,0.19,0.33,-0.34,
2.067,1.89,-3.52,-0.97,0.19,0.33,-0.34,
2.068,1.89,-3.52,-0.97,0.18,0.31,-0.41,
2.071,1.89,-3.52,-0.97,0.16,0.29,-0.50,
2.072,2.97,-3.97,-1.13,0.16,0.29,-0.50,
2.073,2.97,-3.97,-1.13,0.15,0.32,-0.62,
2.074,2.97,-3.97,-1.13,0.15,0.36,-0.75,
2.077,2.70,-3.58,-1.46,0.15,0.36,-0.75,
2.078,2.70,-3.58,-1.46,0.15,0.46,-0.88,
2.08,2.70,-3.58,-1.46,0.15,0.57,-1.01,
2.081,2.76,-2.92,-0.04,0.15,0.57,-1.01,
2.082,2.76,-2.92,-0.04,0.21,0.53,-1.15,
2.084,2.76,-2.92,-0.04,0.27,0.54,-1.28,
2.088,2.65,-2.22,-0.82,0.27,0.54,-1.28,
2.089,2.65,-2.22,-0.82,0.30,0.66,-1.39,
2.09,2.65,-2.22,-0.82,0.35,0.72,-1.49,
2.092,1.52,-1.79,0.39,0.35,0.72,-1.49,
2.093,1.52,-1.79,0.39,0.43,0.72,-1.57,
2.095,1.52,-1.79,0.39,0.52,0.69,-1.63,
2.097,0.34,-1.46,1.63,0.52,0.69,-1.63,
2.097,0.34,-1.46,1.63,0.61,0.67,-1.67,
2.099,0.34,-1.46,1.63,0.69,0.63,-1.71,
2.101,-0.34,-1.54,1.77,0.69,0.63,-1.71,
2.102,-0.34,-1.54,1.77,0.77,0.58,-1.74,
2.105,-0.34,-1.54,1.77,0.84,0.51,-1.76,
2.107,-1.98,-0.15,2.08,0.84,0.51,-1.76,
2.108,-1.98,-0.15,2.08,0.88,0.37,-1.74,
2.11,-1.98,-0.15,2.08,0.90,0.20,-1.67,
2.111,-4.87,3.35,2.02,0.90,0.20,-1.67,
2.112,-4.87,3.35,2.02,0.89,0.03,-1.57,
2.114,-4.87,3.35,2.02,0.81,-0.18,-1.43,
2.118,-7.75,5.82,1.43,0.81,-0.18,-1.43,
2.118,-7.75,5.82,1.43,0.58,-0.52,-1.18,
2.125,-7.75,5.82,1.43,0.10,-1.13,-0.63,
2.126,-12.10,9.76,0.58,0.10,-1.13,-0.63,
2.127,-12.10,9.76,0.58,-0.44,-1.66,-0.04,
2.127,-12.10,9.76,0.58,-0.95,-2.06,0.48,
2.128,-9.30,8.83,-1.56,-0.95,-2.06,0.48,
2.129,-9.30,8.83,-1.56,-1.40,-2.43,0.88,
2.131,-9.30,8.83,-1.56,-1.74,-2.77,1.12,
2.134,-3.37,5.55,0.75,-1.74,-2.77,1.12,
2.141,-2.26,4.34,2.06,-1.74,-2.77,1.12,
2.143,-2.26,4.34,2.06,-1.94,-3.04,1.23,
2.144,-2.45,1.96,2.40,-1.94,-3.04,1.23,
2.145,-2.45,1.96,2.40,-2.00,-3.20,1.28,
2.146,-2.45,1.96,2.40,-1.94,-3.23,1.31,
2.147,-2.45,1.96,2.40,-1.78,-3.15,1.36,
2.148,-2.45,1.96,2.40,-1.51,-3.03,1.41,
2.149,-2.45,1.96,2.40,-1.17,-2.89,1.47,
2.15,-1.97,-0.17,2.19,-1.17,-2.89,1.47,
2.15,-1.97,-0.17,2.19,-0.78,-2.68,1.52,
2.151,-1.97,-0.17,2.19,-0.37,-2.41,1.55,
2.152,-0.85,-1.17,0.37,-0.37,-2.41,1.55,
2.153,-0.85,-1.17,0.37,0.04,-2.08,1.55,
2.155,-0.85,-1.17,0.37,0.41,-1.72,1.53,
2.158,0.45,-1.35,-1.90,0.41,-1.72,1.53,
2.159,0.45,-1.35,-1.90,0.74,-1.33,1.49,
2.159,0.45,-1.35,-1.90,0.99,-0.94,1.45,
2.162,1.23,-1.33,-3.48,0.99,-0.94,1.45,
2.163,1.23,-1.33,-3.48,1.19,-0.61,1.41,
2.164,1.23,-1.33,-3.48,1.32,-0.35,1.38,
2.169,1.42,-1.25,-3.41,1.32,-0.35,1.38,
2.169,1.42,-1.25,-3.41,1.41,-0.18,1.37,
2.17,1.42,-1.25,-3.41,1.45,-0.07,1.37,
2.173,1.39,-1.06,-2.79,1.45,-0.07,1.37,
2.175,1.39,-1.06,-2.79,1.44,-0.01,1.37,
2.176,1.39,-1.06,-2.79,1.41,0.01,1.38,
2.178,1.95,-0.62,-2.00,1.41,0.01,1.38,
2.179,1.95,-0.62,-2.00,1.35,0.00,1.37,
2.179,1.95,-0.62,-2.00,1.28,-0.03,1.32,
2.181,3.38,0.15,-1.08,1.28,-0.03,1.32,
2.182,3.38,0.15,-1.08,1.18,-0.07,1.24,
2.184,3.38,0.15,-1.08,1.08,-0.14,1.11,
2.187,4.89,0.80,0.12,1.08,-0.14,1.11,
2.187,4.89,0.80,0.12,0.99,-0.23,0.94,
2.19,4.89,0.80,0.12,0.89,-0.33,0.75,
2.193,4.93,0.39,0.66,0.89,-0.33,0.75,
2.194,4.93,0.39,0.66,0.79,-0.40,0.56,
2.195,4.93,0.39,0.66,0.68,-0.44,0.40,
2.198,3.37,-0.37,0.13,0.68,-0.44,0.40,
2.199,3.37,-0.37,0.13,0.56,-0.46,0.29,
2.199,3.37,-0.37,0.13,0.42,-0.47,0.21,
2.202,1.64,-0.77,-0.45,0.42,-0.47,0.21,
2.203,1.64,-0.77,-0.45,0.28,-0.47,0.17,
2.206,1.64,-0.77,-0.45,0.15,-0.48,0.15,
2.207,0.56,-0.99,-0.57,0.15,-0.48,0.15,
2.208,0.56,-0.99,-0.57,0.03,-0.48,0.13,
2.209,0.56,-0.99,-0.57,-0.07,-0.50,0.11,
2.214,0.30,-0.82,0.25,-0.07,-0.50,0.11,
2.214,0.30,-0.82,0.25,-0.13,-0.55,0.08,
2.215,0.30,-0.82,0.25,-0.18,-0.63,0.06,
2.218,0.08,-0.04,0.80,-0.18,-0.63,0.06,
2.218,0.08,-0.04,0.80,-0.20,-0.68,0.04,
2.226,0.08,-0.04,0.80,-0.20,-0.70,0.04,
2.227,-0.71,0.15,0.33,-0.20,-0.70,0.04,
2.228,-0.71,0.15,0.33,-0.18,-0.70,0.05,
2.228,-0.71,0.15,0.33,-0.15,-0.69,0.06,
2.229,-0.80,-0.13,0.02,-0.15,-0.69,0.06,
2.229,-0.80,-0.13,0.02,-0.10,-0.65,0.07,
2.23,-0.80,-0.13,0.02,-0.05,-0.60,0.08,
2.233,-0.63,-0.64,-0.26,-0.05,-0.60,0.08,
2.233,-0.63,-0.64,-0.26,0.01,-0.54,0.07,
2.236,-0.63,-0.64,-0.26,0.07,-0.46,0.06,
2.24,-0.29,-1.12,-0.57,0.07,-0.46,0.06,
2.241,-0.29,-1.12,-0.57,0.13,-0.37,0.04,
2.242,-0.29,-1.12,-0.57,0.19,-0.28,0.01,
2.243,-0.10,-1.45,-0.96,0.19,-0.28,0.01,
2.243,-0.10,-1.45,-0.96,0.22,-0.18,-0.02,
2.245,-0.10,-1.45,-0.96,0.22,-0.06,-0.05,
2.247,-0.17,-1.59,-1.71,0.22,-0.06,-0.05,
2.248,-0.17,-1.59,-1.71,0.18,0.06,-0.10,
2.25,-0.17,-1.59,-1.71,0.14,0.12,-0.15,
2.256,-0.37,-0.97,-0.43,0.14,0.12,-0.15,
2.257,-0.37,-0.97,-0.43,0.10,0.12,-0.18,
2.258,-0.37,-0.97,-0.43,0.08,0.08,-0.18,
2.258,-1.05,-0.52,0.46,0.08,0.08,-0.18,
2.259,-1.05,-0.52,0.46,0.07,0.05,-0.17,
2.259,-1.05,-0.52,0.46,0.04,0.05,-0.15,
2.264,-1.10,-0.52,-0.28,0.04,0.05,-0.15,
2.264,-1.10,-0.52,-0.28,-0.00,0.07,-0.13,
2.265,-1.10,-0.52,-0.28,-0.06,0.12,-0.12,
2.268,-0.65,-0.40,-0.95,-0.06,0.12,-0.12,
2.269,-0.65,-0.40,-0.95,-0.13,0.17,-0.12,
2.273,-0.65,-0.40,-0.95,-0.19,0.19,-0.13,
2.274,-0.70,-0.66,-0.25,-0.19,0.19,-0.13,
2.274,-0.70,-0.66,-0.25,-0.23,0.19,-0.13,
2.275,-0.70,-0.66,-0.25,-0.26,0.19,-0.13,
2.277,-1.21,-1.01,0.18,-0.26,0.19,-0.13,
2.278,-1.21,-1.01,0.18,-0.28,0.19,-0.12,
2.28,-1.21,-1.01,0.18,-0.29,0.18,-0.11,
2.285,-1.58,-1.36,0.46,-0.29,0.18,-0.11,
2.285,-1.58,-1.36,0.46,-0.29,0.17,-0.09,
2.286,-1.58,-1.36,0.46,-0.27,0.16,-0.08,
2.289,-1.78,-1.75,0.76,-0.27,0.16,-0.08,
2.29,-1.78,-1.75,0.76,-0.24,0.14,-0.07,
2.292,-1.78,-1.75,0.76,-0.20,0.12,-0.05,
2.293,-1.89,-1.98,0.81,-0.20,0.12,-0.05,
2.296,-1.89,-1.98,0.81,-0.15,0.12,-0.05,
2.296,-1.89,-1.98,0.81,-0.10,0.12,-0.05,
2.298,-1.84,-1.88,0.69,-0.10,0.12,-0.05,
2.299,-1.84,-1.88,0.69,-0.04,0.13,-0.06,
2.301,-1.84,-1.88,0.69,0.07,0.12,-0.08,
2.303,-1.84,-1.88,0.69,0.26,0.13,-0.05,
2.304,-1.95,1.57,2.18,0.26,0.13,-0.05,
2.305,-1.95,1.57,2.18,0.48,0.18,0.06,
2.307,-1.53,14.53,2.33,0.48,0.18,0.06,
2.308,-1.53,14.53,2.33,0.61,0.11,0.25,
2.31,-1.53,14.53,2.33,0.66,-0.02,0.48,
2.312,-1.31,20.75,3.36,0.66,-0.02,0.48,
2.313,-1.31,20.75,3.36,0.75,-0.22,0.77,
2.314,-1.31,20.75,3.36,0.93,-0.51,1.06,
2.318,-1.67,15.48,6.84,0.93,-0.51,1.06,
2.319,-1.67,15.48,6.84,1.16,-0.81,1.32,
2.326,-1.67,15.48,6.84,1.39,-1.08,1.52,
2.327,-1.38,9.42,5.55,1.39,-1.08,1.52,
2.328,-1.38,9.42,5.55,1.55,-1.26,1.68,
2.328,-1.38,9.42,5.55,1.62,-1.33,1.77,
2.329,-1.30,5.31,1.24,1.62,-1.33,1.77,
2.329,-1.30,5.31,1.24,1.60,-1.30,1.80,
2.33,-1.30,5.31,1.24,1.51,-1.27,1.78,
2.334,-1.95,1.36,-0.92,1.51,-1.27,1.78,
2.341,-1.95,1.36,-0.92,1.37,-1.30,1.73,
2.343,-1.95,1.36,-0.92,1.19,-1.41,1.68,
2.344,-4.50,-2.25,-0.43,1.19,-1.41,1.68,
2.345,-4.50,-2.25,-0.43,1.01,-1.56,1.65,
2.346,-4.50,-2.25,-0.43,0.82,-1.73,1.65,
2.346,-6.39,-3.08,-0.34,0.82,-1.73,1.65,
2.347,-6.39,-3.08,-0.34,0.64,-1.85,1.69,
2.348,-6.39,-3.08,-0.34,0.46,-1.86,1.75,
2.348,-6.81,-1.50,-2.46,0.46,-1.86,1.75,
2.349,-6.81,-1.50,-2.46,0.29,-1.76,1.84,
2.35,-6.81,-1.50,-2.46,0.11,-1.55,1.95,
2.353,-5.93,0.75,-4.31,0.11,-1.55,1.95,
2.354,-5.93,0.75,-4.31,-0.05,-1.30,2.06,
2.356,-5.93,0.75,-4.31,-0.18,-1.06,2.17,
2.357,-4.52,2.27,-2.86,-0.18,-1.06,2.17,
2.36,-4.52,2.27,-2.86,-0.29,-0.88,2.27,
2.361,-4.52,2.27,-2.86,-0.35,-0.77,2.36,
2.362,-3.14,2.81,0.06,-0.35,-0.77,2.36,
2.363,-3.14,2.81,0.06,-0.39,-0.75,2.43,
2.365,-3.14,2.81,0.06,-0.41,-0.79,2.49,
2.367,-1.82,2.69,2.07,-0.41,-0.79,2.49,
2.367,-1.82,2.69,2.07,-0.42,-0.89,2.53,
2.372,-1.82,2.69,2.07,-0.40,-1.03,2.55,
2.373,-0.91,2.36,3.26,-0.40,-1.03,2.55,
2.374,-0.91,2.36,3.26,-0.38,-1.18,2.56,
2.374,-0.91,2.36,3.26,-0.34,-1.35,2.56,
2.379,-0.91,2.36,3.26,-0.30,-1.50,2.53,
2.379,-0.33,1.75,3.44,-0.30,-1.50,2.53,
2.379,-0.33,1.75,3.44,-0.25,-1.62,2.46,
2.384,0.25,0.36,2.13,-0.25,-1.62,2.46,
2.384,0.25,0.36,2.13,-0.19,-1.69,2.38,
2.385,0.25,0.36,2.13,-0.13,-1.69,2.27,
2.388,0.77,-1.08,-0.40,-0.13,-1.69,2.27,
2.389,0.77,-1.08,-0.40,-0.07,-1.62,2.12,
2.391,0.77,-1.08,-0.40,-0.01,-1.47,1.97,
2.394,1.13,-2.13,-3.19,-0.01,-1.47,1.97,
2.394,1.13,-2.13,-3.19,0.04,-1.23,1.80,
2.395,1.13,-2.13,-3.19,0.10,-0.96,1.61,
2.398,1.35,-2.69,-4.14,0.10,-0.96,1.61,
2.398,1.35,-2.69,-4.14,0.16,-0.72,1.43,
2.399,1.35,-2.69,-4.14,0.20,-0.48,1.29,
2.405,1.25,-1.66,-3.58,0.20,-0.48,1.29,
2.406,1.25,-1.66,-3.58,0.22,-0.30,1.18,
2.409,1.25,-1.66,-3.58,0.23,-0.19,1.11,
2.409,1.14,-0.82,-1.41,0.23,-0.19,1.11,
2.41,1.14,-0.82,-1.41,0.23,-0.16,1.06,
2.41,1.14,-0.82,-1.41,0.25,-0.18,1.04,
2.414,0.92,-1.02,0.51,0.25,-0.18,1.04,
2.414,0.92,-1.02,0.51,0.28,-0.22,1.02,
2.415,0.92,-1.02,0.51,0.31,-0.27,1.00,
2.419,0.74,-1.13,0.90,0.31,-0.27,1.00,
2.419,0.74,-1.13,0.90,0.34,-0.31,0.98,
2.42,0.74,-1.13,0.90,0.36,-0.33,0.97,
2.428,0.53,-0.45,0.32,0.36,-0.33,0.97,
2.429,0.53,-0.45,0.32,0.38,-0.32,0.98,
2.429,0.53,-0.45,0.32,0.38,-0.30,0.97,
2.43,0.63,0.19,-0.35,0.38,-0.30,0.97,
2.43,0.63,0.19,-0.35,0.37,-0.28,0.96,
2.431,0.63,0.19,-0.35,0.36,-0.26,0.95,
2.435,0.65,0.27,-0.51,0.36,-0.26,0.95,
2.435,0.65,0.27,-0.51,0.34,-0.24,0.93,
2.436,0.65,0.27,-0.51,0.33,-0.22,0.91,
2.438,0.53,0.25,-0.40,0.33,-0.22,0.91,
2.439,0.53,0.25,-0.40,0.33,-0.21,0.90,
2.441,0.53,0.25,-0.40,0.32,-0.20,0.88,
2.443,0.53,0.25,-0.40,0.32,-0.20,0.87,
2.444,0.43,0.10,-0.24,0.32,-0.20,0.87,
2.446,0.43,0.10,-0.24,0.31,-0.20,0.86,
2.448,0.31,0.05,-0.22,0.31,-0.20,0.86,
2.448,0.31,0.05,-0.22,0.31,-0.20,0.86,
2.449,0.31,0.05,-0.22,0.32,-0.21,0.88,
2.453,-0.07,0.31,-0.17,0.32,-0.21,0.88,
2.454,-0.07,0.31,-0.17,0.32,-0.20,0.89,
2.457,-0.07,0.31,-0.17,0.31,-0.21,0.90,
2.458,-0.07,0.31,-0.17,0.29,-0.21,0.90,
2.459,-0.04,0.26,-0.30,0.29,-0.21,0.90,
2.461,-0.04,0.26,-0.30,0.27,-0.21,0.90,
2.465,0.33,0.21,-0.28,0.27,-0.21,0.90,
2.466,0.33,0.21,-0.28,0.24,-0.21,0.90,
2.466,0.33,0.21,-0.28,0.21,-0.22,0.89,
2.47,0.80,-0.07,-0.16,0.21,-0.22,0.89,
2.474,0.80,-0.07,-0.16,0.18,-0.24,0.88,
2.475,0.80,-0.07,-0.16,0.15,-0.26,0.85,
2.476,1.54,-1.07,0.33,0.15,-0.26,0.85,
2.476,1.54,-1.07,0.33,0.13,-0.29,0.81,
2.477,1.54,-1.07,0.33,0.13,-0.33,0.77,
2.478,1.64,-1.33,0.92,0.13,-0.33,0.77,
2.478,1.64,-1.33,0.92,0.14,-0.38,0.75,
2.481,1.64,-1.33,0.92,0.14,-0.43,0.75,
2.483,1.17,-0.74,1.15,0.14,-0.43,0.75,
2.483,1.17,-0.74,1.15,0.15,-0.49,0.77,
2.486,1.17,-0.74,1.15,0.15,-0.54,0.81,
2.489,0.65,-0.02,1.14,0.15,-0.54,0.81,
2.491,0.65,-0.02,1.14,0.17,-0.58,0.85,
2.492,0.65,-0.02,1.14,0.19,-0.62,0.92,
2.493,-0.03,1.00,1.09,0.19,-0.62,0.92,
2.494,-0.03,1.00,1.09,0.22,-0.66,1.00,
2.497,-0.03,1.00,1.09,0.25,-0.70,1.11,
2.498,-1.00,2.38,1.20,0.25,-0.70,1.11,
2.498,-1.00,2.38,1.20,0.29,-0.75,1.24,
2.506,-1.00,2.38,1.20,0.35,-0.81,1.41,
2.506,-2.32,4.54,1.57,0.35,-0.81,1.41,
2.507,-2.32,4.54,1.57,0.40,-0.90,1.62,
2.508,-2.32,4.54,1.57,0.44,-1.04,1.89,
2.508,-2.14,5.07,2.20,0.44,-1.04,1.89,
2.509,-2.14,5.07,2.20,0.49,-1.17,2.09,
2.509,-2.14,5.07,2.20,0.56,-1.31,2.25,
2.513,-1.83,6.00,2.74,0.56,-1.31,2.25,
2.516,-1.83,6.00,2.74,0.60,-1.55,2.46,
2.517,-1.83,6.00,2.74,0.66,-1.80,2.61,
2.517,-0.92,5.73,3.42,0.66,-1.80,2.61,
2.518,-0.92,5.73,3.42,0.69,-2.06,2.70,
2.529,-0.92,5.73,3.42,0.69,-2.29,2.71,
2.529,-0.92,5.73,3.42,0.66,-2.48,2.69,
2.53,-0.09,5.12,2.30,0.66,-2.48,2.69,
2.53,-0.09,5.12,2.30,0.60,-2.67,2.64,
2.53,-0.09,5.12,2.30,0.53,-2.91,2.61,
2.53,-0.46,5.44,2.30,0.53,-2.91,2.61,
2.55,-1.62,5.35,2.71,0.53,-2.91,2.61,
2.551,-2.09,4.79,1.01,0.53,-2.91,2.61,
2.552,-2.09,4.79,1.01,0.49,-3.18,2.60,
2.553,-2.09,4.79,1.01,0.46,-3.37,2.58,
2.554,-2.09,4.79,1.01,0.43,-3.48,2.55,
2.555,-2.09,4.79,1.01,0.43,-3.51,2.51,
2.555,-2.09,4.79,1.01,0.44,-3.52,2.46,
2.556,-2.09,4.79,1.01,0.46,-3.52,2.41,
2.557,-2.57,4.21,0.52,0.46,-3.52,2.41,
2.557,-2.57,4.21,0.52,0.46,-3.46,2.36,
2.558,-2.57,4.21,0.52,0.43,-3.31,2.33,
2.559,-3.24,2.44,-1.66,0.43,-3.31,2.33,
2.559,-3.24,2.44,-1.66,0.36,-3.14,2.29,
2.56,-3.24,2.44,-1.66,0.32,-2.97,2.25,
2.561,-3.11,1.70,-2.39,0.32,-2.97,2.25,
2.561,-3.11,1.70,-2.39,0.31,-2.81,2.20,
2.562,-2.42,1.86,-1.40,0.31,-2.81,2.20,
2.562,-2.42,1.86,-1.40,0.33,-2.66,2.12,
2.563,-2.42,1.86,-1.40,0.42,-2.55,2.04,
2.564,-2.75,2.50,0.75,0.42,-2.55,2.04,
2.564,-2.75,2.50,0.75,0.54,-2.48,2.03,
2.567,-2.75,2.50,0.75,0.64,-2.40,2.08,
2.568,-2.75,2.50,0.75,0.69,-2.25,2.15,
2.576,-2.75,2.50,0.75,0.70,-2.07,2.22,
2.577,-3.94,1.39,-0.38,0.70,-2.07,2.22,
2.578,-3.94,1.39,-0.38,0.67,-1.85,2.24,
2.578,-3.09,0.41,-2.48,0.67,-1.85,2.24,
2.579,-3.09,0.41,-2.48,0.67,-1.65,2.21,
2.581,-3.09,0.41,-2.48,0.69,-1.45,2.18,
2.582,-1.72,0.26,-1.75,0.69,-1.45,2.18,
2.582,-1.72,0.26,-1.75,0.71,-1.28,2.20,
2.585,-1.72,0.26,-1.75,0.73,-1.14,2.25,
2.585,-2.68,-1.38,-0.82,0.73,-1.14,2.25,
2.586,-2.68,-1.38,-0.82,0.74,-1.04,2.29,
2.589,-2.14,-2.02,0.55,0.74,-1.04,2.29,
2.59,-2.14,-2.02,0.55,0.79,-0.99,2.33,
2.593,-2.14,-2.02,0.55,0.88,-1.02,2.39,
2.593,-1.99,-2.98,2.59,0.88,-1.02,2.39,
2.593,-1.99,-2.98,2.59,0.98,-1.09,2.48,
2.596,-1.99,-2.98,2.59,1.10,-1.20,2.45,
2.599,-1.99,-2.98,2.59,1.22,-1.30,2.26,
2.599,1.36,-4.23,3.17,1.22,-1.30,2.26,
2.6,1.36,-4.23,3.17,1.41,-1.42,2.05,
2.607,1.36,-4.23,3.17,1.57,-1.46,1.95,
2.608,1.33,-3.73,2.51,1.57,-1.46,1.95,
2.608,1.33,-3.73,2.51,1.64,-1.41,1.90,
2.609,0.12,-4.71,-1.00,1.64,-1.41,1.90,
2.609,0.12,-4.71,-1.00,1.65,-1.34,1.86,
2.611,0.12,-4.71,-1.00,1.67,-1.28,1.83,
2.614,-0.13,-5.17,-0.19,1.67,-1.28,1.83,
2.615,-0.13,-5.17,-0.19,1.75,-1.29,1.82,
2.616,-0.13,-5.17,-0.19,1.87,-1.32,1.82,
2.62,-0.25,-5.82,0.47,1.87,-1.32,1.82,
2.62,-0.25,-5.82,0.47,1.99,-1.33,1.83,
2.623,-0.25,-5.82,0.47,2.08,-1.26,1.83,
2.624,-0.25,-5.82,0.47,2.08,-1.02,1.83,
2.625,1.09,-6.71,-2.91,2.08,-1.02,1.83,
2.625,1.09,-6.71,-2.91,1.99,-0.53,1.82,
2.63,3.56,-7.49,-7.73,1.99,-0.53,1.82,
2.631,3.56,-7.49,-7.73,1.84,0.02,1.78,
2.631,3.56,-7.49,-7.73,1.64,0.43,1.72,
2.633,2.57,-8.13,-6.31,1.64,0.43,1.72,
2.634,2.57,-8.13,-6.31,1.42,0.67,1.61,
2.636,2.57,-8.13,-6.31,1.19,0.80,1.47,
2.639,2.90,-8.98,-3.95,1.19,0.80,1.47,
2.64,2.90,-8.98,-3.95,0.96,0.89,1.28,
2.642,2.90,-8.98,-3.95,0.71,0.95,1.07,
2.644,6.38,-9.97,-2.95,0.71,0.95,1.07,
2.644,6.38,-9.97,-2.95,0.46,1.02,0.84,
2.646,6.38,-9.97,-2.95,0.24,1.07,0.60,
2.649,9.66,-10.55,-1.35,0.24,1.07,0.60,
2.65,9.66,-10.55,-1.35,0.04,1.03,0.37,
2.65,9.66,-10.55,-1.35,-0.13,0.90,0.15,
2.654,9.08,-10.63,0.79,-0.13,0.90,0.15,
2.655,9.08,-10.63,0.79,-0.25,0.72,-0.05,
2.656,9.08,-10.63,0.79,-0.33,0.55,-0.23,
2.659,7.03,-11.04,1.39,-0.33,0.55,-0.23,
2.659,7.03,-11.04,1.39,-0.39,0.39,-0.38,
2.662,7.03,-11.04,1.39,-0.42,0.23,-0.49,
2.665,4.02,-13.73,1.49,-0.42,0.23,-0.49,
2.665,4.02,-13.73,1.49,-0.43,0.10,-0.56,
2.666,4.02,-13.73,1.49,-0.42,0.05,-0.61,
2.671,1.29,-16.43,0.66,-0.42,0.05,-0.61,
2.671,1.29,-16.43,0.66,-0.39,0.05,-0.67,
2.672,1.29,-16.43,0.66,-0.34,0.09,-0.76,
2.674,0.65,-13.38,0.35,-0.34,0.09,-0.76,
2.675,0.65,-13.38,0.35,-0.26,0.20,-0.86,
2.679,-0.49,-6.00,-0.08,-0.26,0.20,-0.86,
2.684,-6.92,-1.83,-0.80,-0.26,0.20,-0.86,
2.684,-6.92,-1.83,-0.80,-0.17,0.37,-0.95,
2.685,-6.92,-1.83,-0.80,-0.07,0.55,-0.99,
2.685,-6.92,-1.83,-0.80,0.02,0.76,-0.96,
2.686,-6.92,-1.83,-0.80,0.09,0.94,-0.80,
2.686,-6.92,-1.83,-0.80,0.13,1.00,-0.63,
2.688,-6.92,-1.83,-0.80,0.16,0.96,-0.55,
2.691,-6.09,0.98,0.76,0.16,0.96,-0.55,
2.692,-6.09,0.98,0.76,0.18,0.88,-0.56,
2.695,-0.88,2.81,1.71,0.18,0.88,-0.56,
2.696,-0.88,2.81,1.71,0.19,0.77,-0.59,
2.697,-0.88,2.81,1.71,0.19,0.64,-0.58,
2.699,-2.74,2.44,1.58,0.19,0.64,-0.58,
2.699,-2.74,2.44,1.58,0.17,0.50,-0.53,
2.7,-2.74,2.44,1.58,0.14,0.42,-0.49,
2.708,-1.31,2.19,0.55,0.14,0.42,-0.49,
2.709,-1.31,2.19,0.55,0.10,0.38,-0.48,
2.709,-1.31,2.19,0.55,0.07,0.34,-0.48,
2.71,-0.73,1.49,0.23,0.07,0.34,-0.48,
2.71,-0.73,1.49,0.23,0.03,0.27,-0.45,
2.71,-0.73,1.49,0.23,-0.00,0.20,-0.41,
2.716,-1.26,0.66,-0.01,-0.00,0.20,-0.41,
2.716,-1.26,0.66,-0.01,-0.03,0.16,-0.39,
2.717,-1.26,0.66,-0.01,-0.04,0.13,-0.40,
2.718,-0.51,0.19,-0.01,-0.04,0.13,-0.40,
2.718,-0.51,0.19,-0.01,-0.05,0.08,-0.39,
2.722,-0.51,0.19,-0.01,-0.05,0.01,-0.39,
2.724,-0.87,-0.21,0.05,-0.05,0.01,-0.39,
2.725,-0.87,-0.21,0.05,-0.04,-0.04,-0.38,
2.726,-0.87,-0.21,0.05,-0.02,-0.06,-0.38,
2.728,-0.96,-0.47,-0.72,-0.02,-0.06,-0.38,
2.729,-0.96,-0.47,-0.72,-0.00,-0.04,-0.38,
2.732,-0.96,-0.47,-0.72,0.01,-0.09,-0.34,
2.733,-1.61,-0.67,-0.45,0.01,-0.09,-0.34,
2.734,-1.61,-0.67,-0.45,0.03,-0.11,-0.31,
2.736,-1.61,-0.67,-0.45,0.05,-0.09,-0.30,
2.739,-0.83,-0.52,-1.21,0.05,-0.09,-0.30,
2.74,-0.83,-0.52,-1.21,0.06,-0.05,-0.28,
2.744,-0.83,-0.52,-1.21,0.07,-0.06,-0.27,
2.744,-0.42,-0.25,-0.80,0.07,-0.06,-0.27,
2.745,-0.42,-0.25,-0.80,0.08,-0.08,-0.25,
2.746,-0.42,-0.25,-0.80,0.09,-0.05,-0.23,
2.749,0.27,-0.14,-1.53,0.09,-0.05,-0.23,
2.75,0.27,-0.14,-1.53,0.09,0.03,-0.23,
2.753,0.27,-0.14,-1.53,0.10,0.13,-0.25,
2.753,0.86,-0.21,-1.81,0.10,0.13,-0.25,
2.757,0.86,-0.21,-1.81,0.10,0.23,-0.26,
2.758,0.86,-0.21,-1.81,0.10,0.34,-0.27,
2.759,1.69,-0.13,-1.62,0.10,0.34,-0.27,
2.759,1.69,-0.13,-1.62,0.11,0.44,-0.30,
2.761,1.69,-0.13,-1.62,0.11,0.53,-0.33,
2.763,1.75,-0.18,-1.32,0.11,0.53,-0.33,
2.764,1.75,-0.18,-1.32,0.12,0.59,-0.35,
2.766,1.75,-0.18,-1.32,0.12,0.63,-0.35,
2.769,0.83,-0.50,-0.79,0.12,0.63,-0.35,
2.77,0.83,-0.50,-0.79,0.13,0.64,-0.36,
2.773,0.83,-0.50,-0.79,0.13,0.64,-0.35,
2.774,-0.48,-0.75,-0.39,0.13,0.64,-0.35,
2.774,-0.48,-0.75,-0.39,0.12,0.62,-0.33,
2.777,-0.48,-0.75,-0.39,0.11,0.57,-0.28,
2.781,-2.46,-1.12,0.07,0.11,0.57,-0.28,
2.781,-2.46,-1.12,0.07,0.09,0.49,-0.21,
2.782,-2.46,-1.12,0.07,0.07,0.46,-0.21,
2.785,-1.12,-0.14,-0.16,0.07,0.46,-0.21,
2.786,-1.12,-0.14,-0.16,0.04,0.44,-0.23,
2.786,-1.12,-0.14,-0.16,0.01,0.45,-0.24,
2.791,-1.03,0.57,-0.49,0.01,0.45,-0.24,
2.795,-1.33,1.12,-0.44,0.01,0.45,-0.24,
2.795,-1.33,1.12,-0.44,-0.01,0.48,-0.27,
2.796,-1.33,1.12,-0.44,-0.02,0.50,-0.30,
2.796,-1.33,1.12,-0.44,-0.03,0.55,-0.32,
2.796,-1.33,1.12,-0.44,-0.03,0.59,-0.32,
2.8,-2.47,1.85,-0.07,-0.03,0.59,-0.32,
2.801,-2.47,1.85,-0.07,-0.02,0.61,-0.29,
2.802,-2.47,1.85,-0.07,-0.01,0.61,-0.25,
2.805,-3.25,1.47,0.26,-0.01,0.61,-0.25,
2.806,-3.25,1.47,0.26,-0.01,0.61,-0.19,
2.806,-3.25,1.47,0.26,-0.01,0.56,-0.15,
2.809,-2.68,0.62,0.97,-0.01,0.56,-0.15,
2.809,-2.68,0.62,0.97,-0.01,0.48,-0.12,
2.811,-2.68,0.62,0.97,-0.01,0.40,-0.10,
2.814,-2.28,-0.08,1.01,-0.01,0.40,-0.10,
2.815,-2.28,-0.08,1.01,-0.02,0.32,-0.08,
2.819,-1.60,-0.21,0.77,-0.02,0.32,-0.08,
2.825,-1.60,-0.21,0.77,-0.02,0.23,-0.06,
2.826,-1.53,-0.12,0.43,-0.02,0.23,-0.06,
2.826,-1.53,-0.12,0.43,-0.03,0.15,-0.05,
2.826,-1.53,-0.12,0.43,-0.04,0.08,-0.05,
2.827,-1.53,-0.12,0.43,-0.05,0.03,-0.03,
2.83,-1.69,-0.11,0.31,-0.05,0.03,-0.03,
2.831,-1.69,-0.11,0.31,-0.05,-0.02,-0.01,
2.831,-1.69,-0.11,0.31,-0.06,-0.06,0.01,
2.832,-1.69,-0.11,0.31,-0.06,-0.10,0.03,
2.834,-1.68,-0.06,0.31,-0.06,-0.10,0.03,
2.839,-1.68,-0.06,0.31,-0.06,-0.14,0.05,
2.839,-1.68,-0.06,0.31,-0.06,-0.16,0.08,
2.84,-1.56,-0.10,0.37,-0.06,-0.16,0.08,
2.84,-1.56,-0.10,0.37,-0.07,-0.20,0.10,
2.841,-1.56,-0.10,0.37,-0.08,-0.24,0.12,
2.844,-1.56,-0.10,0.37,-0.09,-0.29,0.14,
2.845,-1.25,-0.12,0.51,-0.09,-0.29,0.14,
2.847,-1.25,-0.12,0.51,-0.10,-0.35,0.16,
2.85,-0.94,-0.17,0.52,-0.10,-0.35,0.16,
2.85,-0.94,-0.17,0.52,-0.12,-0.40,0.18,
2.851,-0.94,-0.17,0.52,-0.13,-0.45,0.19,
2.855,-0.40,-0.13,0.47,-0.13,-0.45,0.19,
2.855,-0.40,-0.13,0.47,-0.14,-0.49,0.20,
2.859,-0.40,-0.13,0.47,-0.16,-0.54,0.21,
2.859,-0.23,-0.12,0.50,-0.16,-0.54,0.21,
2.859,-0.23,-0.12,0.50,-0.16,-0.60,0.22,
2.862,-0.23,-0.12,0.50,-0.17,-0.64,0.23,
2.863,-0.27,0.07,0.26,-0.17,-0.64,0.23,
2.864,-0.27,0.07,0.26,-0.17,-0.67,0.25,
2.868,-0.27,0.07,0.26,-0.18,-0.69,0.27,
2.869,-0.15,0.46,0.08,-0.18,-0.69,0.27,
2.87,-0.15,0.46,0.08,-0.19,-0.71,0.29,
2.872,-0.15,0.46,0.08,-0.19,-0.72,0.31,
2.875,-0.10,0.38,-0.15,-0.19,-0.72,0.31,
2.875,-0.10,0.38,-0.15,-0.20,-0.72,0.32,
2.876,-0.10,0.38,-0.15,-0.21,-0.70,0.33,
2.879,0.00,0.22,-0.35,-0.21,-0.70,0.33,
2.879,0.00,0.22,-0.35,-0.22,-0.67,0.34,
2.882,0.00,0.22,-0.35,-0.22,-0.65,0.36,
2.884,-0.09,0.12,-0.31,-0.22,-0.65,0.36,
2.884,-0.09,0.12,-0.31,-0.23,-0.62,0.38,
2.887,-0.09,0.12,-0.31,-0.24,-0.58,0.40,
2.891,-0.35,-0.31,-0.38,-0.24,-0.58,0.40,
2.891,-0.35,-0.31,-0.38,-0.25,-0.52,0.41,
2.892,-0.35,-0.31,-0.38,-0.27,-0.45,0.42,
2.894,-0.61,0.23,-0.46,-0.27,-0.45,0.42,
2.895,-0.61,0.23,-0.46,-0.28,-0.37,0.43,
2.896,-0.61,0.23,-0.46,-0.27,-0.32,0.43,
2.901,-0.83,0.77,0.55,-0.27,-0.32,0.43,
2.901,-0.83,0.77,0.55,-0.25,-0.30,0.45,
2.902,-0.83,0.77,0.55,-0.23,-0.31,0.47,
2.909,-1.32,0.83,0.91,-0.23,-0.31,0.47,
2.91,-1.32,0.83,0.91,-0.21,-0.32,0.50,
2.91,-1.32,0.83,0.91,-0.19,-0.34,0.53,
2.911,-1.70,0.57,0.71,-0.19,-0.34,0.53,
2.911,-1.70,0.57,0.71,-0.18,-0.38,0.56,
2.912,-1.70,0.57,0.71,-0.18,-0.45,0.60,
2.916,-1.92,0.21,0.64,-0.18,-0.45,0.60,
2.917,-1.92,0.21,0.64,-0.19,-0.56,0.64,
2.917,-1.92,0.21,0.64,-0.20,-0.67,0.67,
2.923,-1.30,0.05,0.20,-0.20,-0.67,0.67,
2.924,-1.30,0.05,0.20,-0.22,-0.76,0.69,
2.925,-1.30,0.05,0.20,-0.24,-0.82,0.69,
2.925,-0.47,0.57,-0.10,-0.24,-0.82,0.69,
2.926,-0.47,0.57,-0.10,-0.24,-0.85,0.68,
2.926,-0.47,0.57,-0.10,-0.24,-0.86,0.67,
2.929,0.25,1.00,-0.29,-0.24,-0.86,0.67,
2.93,0.25,1.00,-0.29,-0.23,-0.84,0.64,
2.931,0.25,1.00,-0.29,-0.21,-0.81,0.61,
2.935,1.17,1.07,-0.35,-0.21,-0.81,0.61,
2.936,1.17,1.07,-0.35,-0.19,-0.78,0.57,
2.936,1.17,1.07,-0.35,-0.16,-0.74,0.53,
2.942,2.02,0.94,-0.48,-0.16,-0.74,0.53,
2.943,2.02,0.94,-0.48,-0.14,-0.69,0.49,
2.943,2.02,0.94,-0.48,-0.12,-0.63,0.45,
2.945,2.61,0.68,-0.79,-0.12,-0.63,0.45,
2.946,2.61,0.68,-0.79,-0.10,-0.57,0.40,
2.947,2.61,0.68,-0.79,-0.08,-0.52,0.36,
2.949,2.99,0.16,-1.11,-0.08,-0.52,0.36,
2.95,2.99,0.16,-1.11,-0.08,-0.46,0.32,
2.952,2.99,0.16,-1.11,-0.08,-0.38,0.28,
2.955,3.11,-0.40,-1.40,-0.08,-0.38,0.28,
2.956,3.11,-0.40,-1.40,-0.08,-0.31,0.25,
2.959,3.11,-0.40,-1.40,-0.08,-0.24,0.21,
2.96,2.96,-0.60,-1.33,-0.08,-0.24,0.21,
2.96,2.96,-0.60,-1.33,-0.07,-0.16,0.19,
2.963,2.96,-0.60,-1.33,-0.08,-0.08,0.16,
2.965,2.82,-1.01,-1.52,-0.08,-0.08,0.16,
2.966,2.82,-1.01,-1.52,-0.08,0.03,0.12,
2.967,2.82,-1.01,-1.52,-0.08,0.13,0.09,
2.97,2.60,-1.06,-1.40,-0.08,0.13,0.09,
2.975,2.60,-1.06,-1.40,-0.08,0.22,0.05,
2.976,2.60,-1.06,-1.40,-0.08,0.32,0.02,
2.976,2.35,-0.82,-1.08,-0.08,0.32,0.02,
2.977,2.35,-0.82,-1.08,-0.07,0.41,-0.02,
2.977,2.35,-0.82,-1.08,-0.07,0.50,-0.06,
2.981,2.35,-0.42,-0.73,-0.07,0.50,-0.06,
2.981,2.35,-0.42,-0.73,-0.06,0.56,-0.10,
2.982,2.35,-0.42,-0.73,-0.06,0.62,-0.14,
2.985,2.63,-0.10,-0.74,-0.06,0.62,-0.14,
2.986,2.63,-0.10,-0.74,-0.07,0.66,-0.19,
2.99,2.63,-0.10,-0.74,-0.08,0.72,-0.23,
2.991,3.06,-0.27,-0.83,-0.08,0.72,-0.23,
2.991,3.06,-0.27,-0.83,-0.10,0.79,-0.28,
2.994,3.06,-0.27,-0.83,-0.11,0.87,-0.32,
2.996,3.62,-0.65,-0.55,-0.11,0.87,-0.32,
2.997,3.62,-0.65,-0.55,-0.11,0.94,-0.36,
2.997,3.62,-0.65,-0.55,-0.12,1.01,-0.40,
2.999,4.25,-1.04,-0.14,-0.12,1.01,-0.40,
2.999,4.25,-1.04,-0.14,-0.12,1.04,-0.46,
3.006,4.25,-1.04,-0.14,-0.12,1.08,-0.52,
3.006,4.85,-1.31,0.05,-0.12,1.08,-0.52,
3.007,4.85,-1.31,0.05,-0.11,1.10,-0.59,
3.012,5.52,-1.48,0.13,-0.11,1.10,-0.59,
3.013,5.52,-1.48,0.13,-0.10,1.13,-0.66,
3.014,5.52,-1.48,0.13,-0.08,1.15,-0.74,
3.014,5.52,-1.48,0.13,-0.06,1.18,-0.82,
3.015,6.30,-1.46,0.21,-0.06,1.18,-0.82,
3.016,6.30,-1.46,0.21,-0.04,1.20,-0.91,
3.016,6.30,-1.46,0.21,-0.02,1.19,-1.00,
3.025,6.48,-0.73,0.45,-0.02,1.19,-1.00,
3.026,6.48,-0.73,0.45,0.01,1.19,-1.08,
3.026,6.48,-0.73,0.45,0.03,1.18,-1.16,
3.026,4.33,-0.27,0.36,0.03,1.18,-1.16,
3.026,4.33,-0.27,0.36,0.04,1.18,-1.20,
3.027,4.33,-0.27,0.36,0.06,1.17,-1.21,
3.03,4.33,-0.27,0.36,0.08,1.14,-1.20,
3.03,0.83,-0.07,0.85,0.08,1.14,-1.20,
3.032,0.83,-0.07,0.85,0.10,1.09,-1.17,
3.037,-1.74,0.19,1.94,0.10,1.09,-1.17,
3.037,-1.74,0.19,1.94,0.12,0.99,-1.13,
3.038,-1.74,0.19,1.94,0.13,0.87,-1.08,
3.04,-2.95,0.54,2.60,0.13,0.87,-1.08,
3.041,-2.95,0.54,2.60,0.13,0.72,-1.05,
3.042,-2.95,0.54,2.60,0.13,0.57,-1.02,
3.045,-3.14,1.02,2.55,0.13,0.57,-1.02,
3.045,-3.14,1.02,2.55,0.12,0.43,-1.01,
3.047,-3.14,1.02,2.55,0.11,0.29,-1.01,
3.051,-2.76,1.66,2.11,0.11,0.29,-1.01,
3.051,-2.76,1.66,2.11,0.09,0.18,-1.01,
3.051,-2.76,1.66,2.11,0.07,0.09,-0.99,
3.054,-2.52,2.04,1.48,0.07,0.09,-0.99,
3.055,-2.52,2.04,1.48,0.06,0.02,-0.98,
3.058,-2.52,2.04,1.48,0.05,-0.01,-0.96,
3.059,-2.46,2.04,0.75,0.05,-0.01,-0.96,
3.059,-2.46,2.04,0.75,0.03,-0.03,-0.94,
3.064,-2.46,2.04,0.75,0.02,-0.05,-0.92,
3.065,-2.80,1.47,0.74,0.02,-0.05,-0.92,
3.065,-2.80,1.47,0.74,0.02,-0.06,-0.89,
3.067,-2.80,1.47,0.74,0.01,-0.08,-0.87,
3.07,-2.92,0.63,1.19,0.01,-0.08,-0.87,
3.071,-2.92,0.63,1.19,0.01,-0.13,-0.85,
3.073,-2.92,0.63,1.19,0.02,-0.20,-0.82,
3.075,-3.21,-0.12,1.66,0.02,-0.20,-0.82,
3.076,-3.21,-0.12,1.66,0.04,-0.24,-0.78,
3.076,-3.21,-0.12,1.66,0.06,-0.29,-0.72,
3.081,-5.66,-1.60,1.88,0.06,-0.29,-0.72,
3.081,-5.66,-1.60,1.88,0.09,-0.34,-0.59,
3.082,-5.66,-1.60,1.88,0.12,-0.37,-0.37,
3.087,-9.67,-4.14,1.42,0.12,-0.37,-0.37,
3.087,-9.67,-4.14,1.42,0.13,-0.43,-0.20,
3.088,-9.67,-4.14,1.42,0.14,-0.51,-0.12,
3.093,-5.65,-2.99,1.14,0.14,-0.51,-0.12,
3.094,-5.65,-2.99,1.14,0.13,-0.59,-0.12,
3.094,-5.65,-2.99,1.14,0.13,-0.69,-0.14,
3.095,-3.45,-0.66,0.62,0.13,-0.69,-0.14,
3.095,-3.45,-0.66,0.62,0.11,-0.77,-0.14,
3.099,-3.45,-0.66,0.62,0.10,-0.83,-0.12,
3.1,-3.54,0.78,-0.50,0.10,-0.83,-0.12,
3.1,-3.54,0.78,-0.50,0.08,-0.86,-0.07,
3.103,-3.54,0.78,-0.50,0.06,-0.87,-0.02,
3.107,-3.40,1.09,-1.40,0.06,-0.87,-0.02,
3.108,-3.40,1.09,-1.40,0.03,-0.88,0.02,
3.109,-3.40,1.09,-1.40,0.00,-0.88,0.06,
3.111,-2.68,0.95,-1.77,0.00,-0.88,0.06,
3.112,-2.68,0.95,-1.77,-0.02,-0.87,0.08,
3.112,-2.68,0.95,-1.77,-0.04,-0.86,0.10,
3.115,-2.24,0.75,-1.91,-0.04,-0.86,0.10,
3.116,-2.24,0.75,-1.91,-0.05,-0.82,0.12,
3.118,-2.24,0.75,-1.91,-0.06,-0.75,0.13,
3.119,-1.75,0.70,-2.22,-0.06,-0.75,0.13,
3.12,-1.75,0.70,-2.22,-0.06,-0.67,0.14,
3.127,-1.75,0.70,-2.22,-0.05,-0.56,0.14,
3.128,-0.24,0.76,-2.32,-0.05,-0.56,0.14,
3.128,-0.24,0.76,-2.32,-0.04,-0.44,0.13,
3.129,-0.24,0.76,-2.32,-0.02,-0.30,0.11,
3.133,1.63,0.83,-2.32,-0.02,-0.30,0.11,
3.134,1.63,0.83,-2.32,-0.00,-0.15,0.08,
3.135,1.63,0.83,-2.32,0.02,0.02,0.05,
3.135,2.76,0.81,-2.31,0.02,0.02,0.05,
3.136,2.76,0.81,-2.31,0.06,0.20,0.01,
3.139,3.44,0.59,-2.15,0.06,0.20,0.01,
3.14,3.44,0.59,-2.15,0.09,0.38,-0.02,
3.141,3.44,0.59,-2.15,0.13,0.56,-0.06,
3.142,3.44,0.59,-2.15,0.16,0.72,-0.12,
3.145,3.71,0.18,-1.66,0.16,0.72,-0.12,
3.146,3.71,0.18,-1.66,0.20,0.85,-0.17,
3.147,3.71,0.18,-1.66,0.24,0.99,-0.20,
3.151,2.80,0.11,-1.33,0.24,0.99,-0.20,
3.152,2.80,0.11,-1.33,0.28,1.11,-0.23,
3.152,2.80,0.11,-1.33,0.31,1.21,-0.24,
3.156,1.86,0.09,-1.20,0.31,1.21,-0.24,
3.156,1.86,0.09,-1.20,0.34,1.32,-0.26,
3.157,1.86,0.09,-1.20,0.36,1.40,-0.26,
3.16,0.87,-0.05,-1.08,0.36,1.40,-0.26,
3.161,0.87,-0.05,-1.08,0.37,1.47,-0.25,
3.161,0.87,-0.05,-1.08,0.37,1.53,-0.23,
3.165,-0.39,-0.42,-0.89,0.37,1.53,-0.23,
3.165,-0.39,-0.42,-0.89,0.36,1.58,-0.21,
3.167,-0.39,-0.42,-0.89,0.36,1.59,-0.20,
3.172,-1.39,-0.75,-0.33,0.36,1.59,-0.20,
3.173,-1.39,-0.75,-0.33,0.34,1.60,-0.17,
3.173,-1.39,-0.75,-0.33,0.33,1.58,-0.17,
3.177,-1.58,-0.77,0.23,0.33,1.58,-0.17,
3.177,-1.58,-0.77,0.23,0.32,1.55,-0.15,
3.178,-1.58,-0.77,0.23,0.31,1.49,-0.13,
3.181,-1.86,-0.69,0.74,0.31,1.49,-0.13,
3.182,-1.86,-0.69,0.74,0.29,1.43,-0.12,
3.182,-1.86,-0.69,0.74,0.28,1.37,-0.11,
3.185,-0.62,-0.19,0.88,0.28,1.37,-0.11,
3.186,-0.62,-0.19,0.88,0.26,1.29,-0.12,
3.188,-0.62,-0.19,0.88,0.25,1.23,-0.14,
3.19,-0.18,0.06,0.72,0.25,1.23,-0.14,
3.19,-0.18,0.06,0.72,0.24,1.15,-0.13,
3.193,-0.18,0.06,0.72,0.23,1.12,-0.14,
3.195,0.80,0.14,0.50,0.23,1.12,-0.14,
3.196,0.80,0.14,0.50,0.22,1.04,-0.15,
3.197,0.80,0.14,0.50,0.23,0.94,-0.16,
3.2,0.80,-0.10,0.33,0.23,0.94,-0.16,
3.201,0.80,-0.10,0.33,0.23,0.94,-0.17,
3.202,0.80,-0.10,0.33,0.24,0.89,-0.17,
3.206,1.13,-0.19,0.90,0.24,0.89,-0.17,
3.207,1.13,-0.19,0.90,0.26,0.81,-0.19,
3.207,1.13,-0.19,0.90,0.29,0.85,-0.21,
3.21,1.82,-0.20,-0.11,0.29,0.85,-0.21,
3.211,1.82,-0.20,-0.11,0.30,0.85,-0.22,
3.213,1.82,-0.20,-0.11,0.32,0.78,-0.25,
3.214,3.27,-0.54,0.06,0.32,0.78,-0.25,
3.215,3.27,-0.54,0.06,0.36,0.84,-0.32,
3.218,3.27,-0.54,0.06,0.38,0.97,-0.39,
3.227,4.53,0.44,-0.88,0.38,0.97,-0.39,
3.227,4.53,0.44,-0.88,0.39,1.03,-0.46,
3.228,4.53,0.44,-0.88,0.40,1.02,-0.51,
3.229,4.30,-0.13,0.32,0.40,1.02,-0.51,
3.229,4.30,-0.13,0.32,0.40,0.95,-0.54,
3.23,4.30,-0.13,0.32,0.40,0.85,-0.57,
3.23,2.70,-1.30,1.12,0.40,0.85,-0.57,
3.23,2.70,-1.30,1.12,0.39,0.75,-0.57,
3.235,2.70,-1.30,1.12,0.38,0.64,-0.56,
3.236,0.93,-2.16,1.15,0.38,0.64,-0.56,
3.237,0.93,-2.16,1.15,0.38,0.56,-0.56,
3.241,0.93,-2.16,1.15,0.38,0.49,-0.58,
3.242,0.01,-2.45,0.92,0.38,0.49,-0.58,
3.242,0.01,-2.45,0.92,0.38,0.41,-0.60,
3.243,0.01,-2.45,0.92,0.41,0.27,-0.62,
3.246,0.25,-2.07,1.64,0.41,0.27,-0.62,
3.246,0.25,-2.07,1.64,0.43,0.11,-0.65,
3.247,0.25,-2.07,1.64,0.43,-0.01,-0.69,
3.25,-0.23,-1.10,0.17,0.43,-0.01,-0.69,
3.251,-0.23,-1.10,0.17,0.43,-0.07,-0.70,
3.252,-0.23,-1.10,0.17,0.40,-0.14,-0.64,
3.256,-2.15,-1.17,-0.95,0.40,-0.14,-0.64,
3.256,-2.15,-1.17,-0.95,0.37,-0.18,-0.60,
3.259,-2.15,-1.17,-0.95,0.36,-0.21,-0.60,
3.26,-0.13,0.01,-1.18,0.36,-0.21,-0.60,
3.26,-0.13,0.01,-1.18,0.34,-0.23,-0.64,
3.264,-0.13,0.01,-1.18,0.31,-0.25,-0.65,
3.266,-0.83,1.05,-1.55,0.31,-0.25,-0.65,
3.267,-0.83,1.05,-1.55,0.29,-0.26,-0.64,
3.267,-0.83,1.05,-1.55,0.27,-0.27,-0.61,
3.271,-1.93,1.63,-1.79,0.27,-0.27,-0.61,
3.271,-1.93,1.63,-1.79,0.26,-0.26,-0.55,
3.276,-1.93,1.63,-1.79,0.23,-0.22,-0.51,
3.276,-1.92,1.83,-2.10,0.23,-0.22,-0.51,
3.277,-1.92,1.83,-2.10,0.22,-0.18,-0.46,
3.277,-1.92,1.83,-2.10,0.20,-0.14,-0.42,
3.282,-1.77,1.72,-2.13,0.20,-0.14,-0.42,
3.283,-1.77,1.72,-2.13,0.18,-0.08,-0.39,
3.283,-1.77,1.72,-2.13,0.16,-0.03,-0.36,
3.287,-1.98,1.53,-2.11,0.16,-0.03,-0.36,
3.287,-1.98,1.53,-2.11,0.14,0.02,-0.31,
3.292,-1.98,1.53,-2.11,0.11,0.06,-0.27,
3.293,-1.98,1.53,-2.11,0.09,0.10,-0.21,
3.293,-2.09,0.87,-1.89,0.09,0.10,-0.21,
3.294,-2.09,0.87,-1.89,0.06,0.13,-0.16,
3.296,-2.38,0.04,-1.54,0.06,0.13,-0.16,
3.297,-2.38,0.04,-1.54,0.02,0.15,-0.10,
3.297,-2.38,0.04,-1.54,0.01,0.15,-0.08,
3.3,-2.00,-0.33,-1.04,0.01,0.15,-0.08,
3.3,-2.00,-0.33,-1.04,-0.02,0.13,-0.04,
3.302,-2.00,-0.33,-1.04,-0.05,0.11,0.05,
3.307,-3.33,-1.39,-0.74,-0.05,0.11,0.05,
3.308,-3.33,-1.39,-0.74,-0.07,0.08,0.13,
3.309,-3.33,-1.39,-0.74,-0.08,0.05,0.13,
3.31,-1.27,-1.21,-0.45,-0.08,0.05,0.13,
3.311,-1.27,-1.21,-0.45,-0.10,0.01,0.11,
3.313,-1.27,-1.21,-0.45,-0.11,-0.01,0.08,
3.314,-1.21,-0.10,-0.75,-0.11,-0.01,0.08,
3.315,-1.21,-0.10,-0.75,-0.12,-0.03,0.09,
3.317,-1.21,-0.10,-0.75,-0.13,-0.03,0.10,
3.321,-0.94,0.53,-0.66,-0.13,-0.03,0.10,
3.321,-0.94,0.53,-0.66,-0.13,-0.05,0.11,
3.327,-0.94,0.53,-0.66,-0.13,-0.05,0.11,
3.328,-0.46,0.53,-0.61,-0.13,-0.05,0.11,
3.328,-0.46,0.53,-0.61,-0.13,-0.05,0.11,
3.329,-0.46,0.53,-0.61,-0.13,-0.03,0.11,
3.333,-0.00,0.27,-0.74,-0.13,-0.03,0.11,
3.333,-0.00,0.27,-0.74,-0.13,0.00,0.10,
3.334,-0.00,0.27,-0.74,-0.12,0.04,0.09,
3.336,-0.00,0.27,-0.74,-0.12,0.08,0.07,
3.343,0.36,0.23,-0.73,-0.12,0.08,0.07,
3.344,0.21,-0.08,-0.26,-0.12,0.08,0.07,
3.344,0.21,-0.08,-0.26,-0.11,0.13,0.06,
3.345,0.21,-0.08,-0.26,-0.09,0.16,0.03,
3.345,0.21,-0.08,-0.26,-0.06,0.21,0.01,
3.346,0.30,-0.20,-0.08,-0.06,0.21,0.01,
3.346,0.30,-0.20,-0.08,-0.05,0.27,-0.02,
3.347,0.30,-0.20,-0.08,-0.03,0.33,-0.05,
3.351,0.29,-0.20,0.12,-0.03,0.33,-0.05,
3.351,0.29,-0.20,0.12,-0.00,0.39,-0.07,
3.352,0.29,-0.20,0.12,0.02,0.44,-0.11,
3.356,0.14,-0.20,0.55,0.02,0.44,-0.11,
3.357,0.14,-0.20,0.55,0.05,0.47,-0.13,
3.358,0.14,-0.20,0.55,0.07,0.50,-0.14,
3.36,-0.37,-0.19,0.75,0.07,0.50,-0.14,
3.36,-0.37,-0.19,0.75,0.09,0.52,-0.15,
3.362,-0.37,-0.19,0.75,0.10,0.51,-0.14,
3.367,-0.69,-0.36,0.79,0.10,0.51,-0.14,
3.367,-0.69,-0.36,0.79,0.12,0.52,-0.14,
3.367,-0.69,-0.36,0.79,0.12,0.50,-0.14,
3.37,-0.69,-0.36,0.79,0.12,0.46,-0.14,
3.37,-0.89,-0.43,0.74,0.12,0.46,-0.14,
3.375,-0.89,-0.43,0.74,0.12,0.45,-0.13,
3.375,-0.85,-0.24,0.48,0.12,0.45,-0.13,
3.376,-0.85,-0.24,0.48,0.12,0.44,-0.13,
3.379,-0.85,-0.24,0.48,0.11,0.40,-0.13,
3.381,-0.60,-0.01,0.43,0.11,0.40,-0.13,
3.381,-0.60,-0.01,0.43,0.10,0.36,-0.12,
3.383,-0.60,-0.01,0.43,0.09,0.34,-0.11,
3.385,-0.60,-0.01,0.43,0.09,0.31,-0.10,
3.385,-0.61,0.10,0.31,0.09,0.31,-0.10,
3.389,-0.61,0.10,0.31,0.07,0.25,-0.09,
3.39,-0.61,0.10,0.31,0.07,0.19,-0.08,
3.391,-0.22,0.04,0.50,0.07,0.19,-0.08,
3.393,-0.22,0.04,0.50,0.07,0.16,-0.08,
3.395,-0.26,0.13,0.24,0.07,0.16,-0.08,
3.395,-0.26,0.13,0.24,0.07,0.13,-0.06,
3.399,-0.26,0.13,0.24,0.06,0.08,-0.06,
3.401,0.45,0.30,0.40,0.06,0.08,-0.06,
3.401,0.45,0.30,0.40,0.06,0.02,-0.07,
3.402,0.45,0.30,0.40,0.06,-0.02,-0.07,
3.406,0.41,0.21,0.35,0.06,-0.02,-0.07,
3.407,0.41,0.21,0.35,0.06,-0.06,-0.08,
3.408,0.41,0.21,0.35,0.08,-0.07,-0.07,
3.41,0.36,0.43,0.25,0.08,-0.07,-0.07,
3.411,0.36,0.43,0.25,0.09,-0.10,-0.08,
3.413,0.36,0.43,0.25,0.08,-0.14,-0.08,
3.418,0.50,0.32,0.26,0.08,-0.14,-0.08,
3.419,0.50,0.32,0.26,0.08,-0.18,-0.08,
3.419,0.50,0.32,0.26,0.09,-0.20,-0.08,
3.425,0.25,0.37,0.11,0.09,-0.20,-0.08,
3.426,0.25,0.37,0.11,0.09,-0.22,-0.08,
3.426,0.25,0.37,0.11,0.08,-0.23,-0.08,
3.427,0.08,0.49,-0.07,0.08,-0.23,-0.08,
3.427,0.08,0.49,-0.07,0.08,-0.23,-0.08,
3.428,0.08,0.49,-0.07,0.08,-0.23,-0.08,
3.434,-0.18,0.59,-0.10,0.08,-0.23,-0.08,
3.435,-0.18,0.59,-0.10,0.08,-0.23,-0.06,
3.436,-0.18,0.59,-0.10,0.08,-0.23,-0.06,
3.436,-0.16,0.60,-0.15,0.08,-0.23,-0.06,
3.437,-0.16,0.60,-0.15,0.07,-0.22,-0.05,
3.44,-0.16,0.60,-0.15,0.07,-0.20,-0.03,
3.441,-0.43,0.38,-0.24,0.07,-0.20,-0.03,
3.441,-0.43,0.38,-0.24,0.06,-0.19,-0.02,
3.443,-0.43,0.38,-0.24,0.05,-0.18,-0.01,
3.446,-0.35,0.39,-0.10,0.05,-0.18,-0.01,
3.447,-0.35,0.39,-0.10,0.05,-0.17,0.00,
3.448,-0.35,0.39,-0.10,0.04,-0.17,0.02,
3.451,-0.59,0.39,-0.20,0.04,-0.17,0.02,
3.452,-0.59,0.39,-0.20,0.03,-0.15,0.04,
3.454,-0.59,0.39,-0.20,0.02,-0.15,0.06,
3.457,-0.71,0.43,-0.28,0.02,-0.15,0.06,
3.457,-0.71,0.43,-0.28,0.00,-0.14,0.08,
3.458,-0.71,0.43,-0.28,-0.02,-0.15,0.11,
3.462,-0.47,0.57,-0.39,-0.02,-0.15,0.11,
3.463,-0.47,0.57,-0.39,-0.04,-0.14,0.14,
3.463,-0.47,0.57,-0.39,-0.06,-0.14,0.15,
3.466,-0.47,0.57,-0.39,-0.09,-0.14,0.17,
3.467,-0.01,0.80,-0.56,-0.09,-0.14,0.17,
3.469,-0.01,0.80,-0.56,-0.12,-0.14,0.20,
3.473,-0.20,0.68,-0.64,-0.12,-0.14,0.20,
3.474,-0.20,0.68,-0.64,-0.15,-0.15,0.23,
3.476,0.11,0.47,-0.54,-0.15,-0.15,0.23,
3.477,0.11,0.47,-0.54,-0.18,-0.15,0.25,
3.478,0.11,0.47,-0.54,-0.21,-0.18,0.26,
3.478,0.11,0.47,-0.54,-0.24,-0.20,0.31,
3.482,-0.59,0.06,-0.38,-0.24,-0.20,0.31,
3.483,-0.59,0.06,-0.38,-0.27,-0.24,0.34,
3.484,-0.59,0.06,-0.38,-0.29,-0.29,0.36,
3.487,-0.78,-0.02,-0.18,-0.29,-0.29,0.36,
3.491,-0.78,-0.02,-0.18,-0.31,-0.34,0.40,
3.492,-0.78,-0.02,-0.18,-0.34,-0.39,0.45,
3.492,-2.06,-0.58,-0.94,-0.34,-0.39,0.45,
3.493,-2.06,-0.58,-0.94,-0.39,-0.42,0.52,
3.493,-2.06,-0.58,-0.94,-0.47,-0.47,0.62,
3.496,-3.06,-0.56,-1.29,-0.47,-0.47,0.62,
3.496,-3.06,-0.56,-1.29,-0.54,-0.52,0.73,
3.498,-3.06,-0.56,-1.29,-0.60,-0.58,0.81,
3.501,-1.97,0.45,-0.76,-0.60,-0.58,0.81,
3.502,-1.97,0.45,-0.76,-0.64,-0.65,0.85,
3.506,-1.97,0.45,-0.76,-0.68,-0.72,0.89,
3.507,-2.30,0.64,-0.42,-0.68,-0.72,0.89,
3.507,-2.30,0.64,-0.42,-0.73,-0.81,0.95,
3.508,-2.30,0.64,-0.42,-0.76,-0.89,1.03,
3.512,-2.55,0.58,-0.23,-0.76,-0.89,1.03,
3.513,-2.55,0.58,-0.23,-0.79,-0.98,1.09,
3.514,-2.55,0.58,-0.23,-0.83,-1.08,1.14,
3.517,-3.20,-0.46,-0.59,-0.83,-1.08,1.14,
3.517,-3.20,-0.46,-0.59,-0.89,-1.18,1.22,
3.518,-3.20,-0.46,-0.59,-0.91,-1.28,1.28,
3.521,-2.89,-0.15,0.11,-0.91,-1.28,1.28,
3.521,-2.89,-0.15,0.11,-0.92,-1.39,1.31,
3.529,-2.89,-0.15,0.11,-0.92,-1.50,1.36,
3.53,-2.22,0.51,0.31,-0.92,-1.50,1.36,
3.531,-2.22,0.51,0.31,-0.92,-1.62,1.37,
3.531,-2.22,0.51,0.31,-0.92,-1.75,1.38,
3.532,-1.40,-0.03,0.21,-0.92,-1.75,1.38,
3.532,-1.40,-0.03,0.21,-0.92,-1.88,1.37,
3.533,-1.40,-0.03,0.21,-0.93,-2.00,1.36,
3.537,-0.65,-0.42,0.06,-0.93,-2.00,1.36,
3.538,-0.65,-0.42,0.06,-0.93,-2.13,1.33,
3.538,-0.65,-0.42,0.06,-0.94,-2.27,1.30,
3.543,0.27,-0.72,0.14,-0.94,-2.27,1.30,
3.544,0.27,-0.72,0.14,-0.94,-2.40,1.25,
3.545,0.27,-0.72,0.14,-0.94,-2.53,1.20,
3.546,0.75,-0.67,-0.06,-0.94,-2.53,1.20,
3.547,0.75,-0.67,-0.06,-0.93,-2.65,1.15,
3.548,0.75,-0.67,-0.06,-0.92,-2.72,1.11,
3.551,0.90,-0.45,-0.50,-0.92,-2.72,1.11,
3.552,0.90,-0.45,-0.50,-0.89,-2.73,1.06,
3.553,0.90,-0.45,-0.50,-0.85,-2.69,1.00,
3.556,1.32,-0.13,-0.63,-0.85,-2.69,1.00,
3.557,1.32,-0.13,-0.63,-0.80,-2.61,0.94,
3.558,1.32,-0.13,-0.63,-0.72,-2.51,0.88,
3.561,1.30,-0.24,-0.21,-0.72,-2.51,0.88,
3.562,1.30,-0.24,-0.21,-0.64,-2.39,0.83,
3.565,1.30,-0.24,-0.21,-0.55,-2.25,0.78,
3.566,1.16,-0.44,0.11,-0.55,-2.25,0.78,
3.566,1.16,-0.44,0.11,-0.45,-2.09,0.73,
3.569,1.16,-0.44,0.11,-0.35,-1.93,0.69,
3.571,1.37,-0.72,0.47,-0.35,-1.93,0.69,
3.572,1.37,-0.72,0.47,-0.25,-1.76,0.64,
3.574,1.37,-0.72,0.47,-0.15,-1.60,0.58,
3.576,1.84,-0.89,0.81,-0.15,-1.60,0.58,
3.577,1.84,-0.89,0.81,-0.06,-1.44,0.52,
3.579,1.84,-0.89,0.81,0.03,-1.28,0.45,
3.583,1.84,-0.89,0.81,0.10,-1.14,0.40,
3.584,2.19,-0.70,0.83,0.10,-1.14,0.40,
3.584,2.19,-0.70,0.83,0.17,-1.03,0.33,
3.586,2.82,-0.81,0.53,0.17,-1.03,0.33,
3.587,2.82,-0.81,0.53,0.21,-0.92,0.25,
3.591,2.50,-0.32,0.32,0.21,-0.92,0.25,
3.592,2.50,-0.32,0.32,0.24,-0.83,0.18,
3.593,2.50,-0.32,0.32,0.28,-0.74,0.12,
3.593,2.50,-0.32,0.32,0.29,-0.65,0.06,
3.597,2.51,-0.12,-0.07,0.29,-0.65,0.06,
3.597,2.51,-0.12,-0.07,0.30,-0.56,0.01,
3.599,2.51,-0.12,-0.07,0.30,-0.51,-0.03,
3.601,2.39,1.41,0.91,0.30,-0.51,-0.03,
3.601,2.39,1.41,0.91,0.33,-0.51,-0.06,
3.61,2.39,1.41,0.91,0.35,-0.52,-0.09,
3.611,2.39,1.41,0.91,0.35,-0.55,-0.11,
3.612,2.52,1.97,0.88,0.35,-0.55,-0.11,
3.612,2.52,1.97,0.88,0.36,-0.59,-0.11,
3.613,1.89,2.57,1.15,0.36,-0.59,-0.11,
3.613,1.89,2.57,1.15,0.37,-0.64,-0.09,
3.614,1.89,2.57,1.15,0.37,-0.67,-0.05,
3.619,1.60,2.49,0.43,0.37,-0.67,-0.05,
3.62,1.60,2.49,0.43,0.34,-0.69,-0.01,
3.62,1.60,2.49,0.43,0.30,-0.69,0.04,
3.624,1.66,1.77,-0.27,0.30,-0.69,0.04,
3.625,1.66,1.77,-0.27,0.25,-0.69,0.08,
3.625,1.66,1.77,-0.27,0.19,-0.69,0.11,
3.627,1.87,0.61,-0.38,0.19,-0.69,0.11,
3.628,1.87,0.61,-0.38,0.12,-0.70,0.13,
3.628,1.87,0.61,-0.38,0.05,-0.70,0.15,
3.632,2.14,-0.69,-0.10,0.05,-0.70,0.15,
3.634,2.14,-0.69,-0.10,-0.01,-0.72,0.16,
3.634,2.14,-0.69,-0.10,-0.06,-0.74,0.17,
3.637,2.39,-1.19,0.78,-0.06,-0.74,0.17,
3.637,2.39,-1.19,0.78,-0.10,-0.76,0.16,
3.641,2.39,-1.19,0.78,-0.11,-0.78,0.15,
3.641,2.59,-1.14,1.41,-0.11,-0.78,0.15,
3.642,2.59,-1.14,1.41,-0.12,-0.80,0.13,
3.647,2.59,-1.14,1.41,-0.11,-0.80,0.11,
3.647,2.64,-1.00,1.50,-0.11,-0.80,0.11,
3.647,2.64,-1.00,1.50,-0.09,-0.80,0.09,
3.649,2.64,-1.00,1.50,-0.07,-0.78,0.07,
3.652,2.36,-0.64,1.51,-0.07,-0.78,0.07,
3.652,2.36,-0.64,1.51,-0.05,-0.77,0.05,
3.653,2.36,-0.64,1.51,-0.04,-0.74,0.03,
3.656,2.31,-0.77,1.01,-0.04,-0.74,0.03,
3.657,2.31,-0.77,1.01,-0.03,-0.71,-0.01,
3.662,2.31,-0.77,1.01,-0.02,-0.69,-0.03,
3.663,1.95,-0.82,0.93,-0.02,-0.69,-0.03,
3.663,1.95,-0.82,0.93,-0.02,-0.67,-0.06,
3.663,1.95,-0.82,0.93,-0.01,-0.65,-0.08,
3.667,1.46,-0.60,1.02,-0.01,-0.65,-0.08,
3.667,1.46,-0.60,1.02,-0.01,-0.63,-0.10,
3.668,1.46,-0.60,1.02,0.00,-0.62,-0.11,
3.674,0.97,-0.35,1.07,0.00,-0.62,-0.11,
3.674,0.97,-0.35,1.07,0.01,-0.61,-0.13,
3.675,0.97,-0.35,1.07,0.01,-0.60,-0.14,
3.679,0.51,-0.42,0.93,0.01,-0.60,-0.14,
3.68,0.51,-0.42,0.93,0.02,-0.58,-0.14,
3.681,0.51,-0.42,0.93,0.02,-0.48,-0.11,
3.681,1.26,-1.50,0.03,0.02,-0.48,-0.11,
3.682,1.26,-1.50,0.03,0.03,-0.31,-0.10,
3.684,1.26,-1.50,0.03,0.05,-0.21,-0.11,
3.686,1.21,-1.91,0.79,0.05,-0.21,-0.11,
3.686,1.21,-1.91,0.79,0.06,-0.22,-0.13,
3.689,1.21,-1.91,0.79,0.08,-0.27,-0.18,
3.692,-0.01,-0.97,1.48,0.08,-0.27,-0.18,
3.693,-0.01,-0.97,1.48,0.11,-0.29,-0.21,
3.693,-0.01,-0.97,1.48,0.14,-0.27,-0.22,
3.696,-0.99,-0.30,1.11,0.14,-0.27,-0.22,
3.696,-0.99,-0.30,1.11,0.16,-0.23,-0.20,
3.698,-0.99,-0.30,1.11,0.16,-0.15,-0.15,
3.702,-0.82,-0.21,0.36,0.16,-0.15,-0.15,
3.703,-0.82,-0.21,0.36,0.14,-0.06,-0.11,
3.703,-0.82,-0.21,0.36,0.12,-0.02,-0.11,
3.707,-0.82,-0.21,0.36,0.09,-0.05,-0.13,
3.708,0.55,0.66,1.26,0.09,-0.05,-0.13,
3.709,0.55,0.66,1.26,0.07,-0.12,-0.19,
3.712,0.72,2.11,1.82,0.07,-0.12,-0.19,
3.713,0.72,2.11,1.82,0.05,-0.21,-0.24,
3.715,0.72,2.11,1.82,0.03,-0.28,-0.27,
3.717,-0.23,3.04,0.85,0.03,-0.28,-0.27,
3.718,-0.23,3.04,0.85,-0.01,-0.31,-0.27,
3.718,-0.23,3.04,0.85,-0.04,-0.34,-0.25,
3.727,-0.40,3.00,0.42,-0.04,-0.34,-0.25,
3.728,-0.40,3.00,0.42,-0.08,-0.37,-0.24,
3.728,-0.40,3.00,0.42,-0.11,-0.41,-0.23,
3.729,-0.08,2.51,0.74,-0.11,-0.41,-0.23,
3.729,-0.08,2.51,0.74,-0.13,-0.46,-0.23,
3.73,-0.08,2.51,0.74,-0.14,-0.51,-0.23,
3.733,-0.10,1.57,0.94,-0.14,-0.51,-0.23,
3.733,-0.10,1.57,0.94,-0.14,-0.56,-0.23,
3.734,-0.10,1.57,0.94,-0.13,-0.61,-0.23,
3.737,-0.79,0.25,0.76,-0.13,-0.61,-0.23,
3.738,-0.79,0.25,0.76,-0.12,-0.65,-0.21,
3.741,-0.79,0.25,0.76,-0.11,-0.68,-0.19,
3.742,-1.47,-1.12,0.24,-0.11,-0.68,-0.19,
3.743,-1.47,-1.12,0.24,-0.09,-0.69,-0.16,
3.743,-1.47,-1.12,0.24,-0.08,-0.67,-0.15,
3.747,-1.61,-2.36,-0.57,-0.08,-0.67,-0.15,
3.747,-1.61,-2.36,-0.57,-0.06,-0.62,-0.15,
3.748,-1.61,-2.36,-0.57,-0.05,-0.56,-0.15,
3.751,-1.74,-2.80,-1.19,-0.05,-0.56,-0.15,
3.752,-1.74,-2.80,-1.19,-0.03,-0.48,-0.15,
3.755,-1.74,-2.80,-1.19,-0.01,-0.38,-0.16,
3.759,-1.72,-2.37,-1.48,-0.01,-0.38,-0.16,
3.76,-1.72,-2.37,-1.48,0.01,-0.29,-0.15,
3.76,-1.72,-2.37,-1.48,0.03,-0.19,-0.14,
3.761,-1.34,-1.66,-1.55,0.03,-0.19,-0.14,
3.762,-1.34,-1.66,-1.55,0.05,-0.09,-0.14,
3.764,-1.34,-1.66,-1.55,0.07,0.01,-0.13,
3.767,-0.60,-0.96,-1.52,0.07,0.01,-0.13,
3.768,-0.60,-0.96,-1.52,0.08,0.09,-0.13,
3.768,-0.60,-0.96,-1.52,0.08,0.18,-0.14,
3.774,0.08,-0.56,-1.48,0.08,0.18,-0.14,
3.775,0.08,-0.56,-1.48,0.08,0.26,-0.15,
3.778,0.26,-0.24,-1.54,0.08,0.26,-0.15,
3.779,0.26,-0.24,-1.54,0.08,0.34,-0.16,
3.779,0.26,-0.24,-1.54,0.06,0.41,-0.17,
3.78,0.26,-0.24,-1.54,0.05,0.49,-0.17,
3.783,0.24,0.28,-1.71,0.05,0.49,-0.17,
3.784,0.24,0.28,-1.71,0.04,0.57,-0.17,
3.785,0.24,0.28,-1.71,0.02,0.64,-0.17,
3.787,0.63,0.83,-1.92,0.02,0.64,-0.17,
3.788,0.63,0.83,-1.92,-0.00,0.71,-0.16,
3.788,0.63,0.83,-1.92,-0.03,0.81,-0.18,
3.792,0.63,0.83,-1.92,-0.06,0.91,-0.19,
3.793,2.00,1.54,-2.34,-0.06,0.91,-0.19,
3.794,2.00,1.54,-2.34,-0.08,1.01,-0.22,
3.797,3.83,2.14,-2.28,-0.08,1.01,-0.22,
3.799,3.83,2.14,-2.28,-0.10,1.12,-0.25,
3.799,3.83,2.14,-2.28,-0.11,1.23,-0.28,
3.801,4.55,2.53,-1.96,-0.11,1.23,-0.28,
3.802,4.55,2.53,-1.96,-0.12,1.33,-0.30,
3.809,4.55,2.53,-1.96,-0.12,1.40,-0.31,
3.81,4.00,2.06,-1.52,-0.12,1.40,-0.31,
3.811,4.00,2.06,-1.52,-0.12,1.48,-0.31,
3.811,4.00,2.06,-1.52,-0.12,1.50,-0.30,
3.812,3.23,1.15,-0.71,-0.12,1.50,-0.30,
3.812,3.23,1.15,-0.71,-0.11,1.50,-0.30,
3.818,3.23,1.15,-0.71,-0.13,1.51,-0.29,
3.819,2.84,0.58,-0.39,-0.13,1.51,-0.29,
3.82,2.84,0.58,-0.39,-0.12,1.46,-0.29,
3.82,2.84,0.58,-0.39,-0.09,1.35,-0.30,
3.823,2.07,-0.85,1.48,-0.09,1.35,-0.30,
3.825,2.07,-0.85,1.48,-0.06,1.19,-0.30,
3.825,2.07,-0.85,1.48,-0.03,1.01,-0.31,
3.826,2.07,-0.85,1.48,-0.01,0.84,-0.31,
3.827,0.89,-1.75,1.60,-0.01,0.84,-0.31,
3.83,0.89,-1.75,1.60,-0.01,0.74,-0.28,
3.831,-0.05,-0.55,0.36,-0.01,0.74,-0.28,
3.832,-0.05,-0.55,0.36,-0.00,0.61,-0.24,
3.834,-0.05,-0.55,0.36,0.02,0.45,-0.21,
3.838,0.19,-0.11,0.81,0.02,0.45,-0.21,
3.843,0.19,-0.11,0.81,0.04,0.29,-0.19,
3.843,0.19,-0.11,0.81,0.05,0.12,-0.17,
3.844,-0.58,-0.70,0.11,0.05,0.12,-0.17,
3.844,-0.58,-0.70,0.11,0.05,-0.02,-0.14,
3.845,-0.58,-0.70,0.11,0.02,-0.13,-0.06,
3.847,-2.24,-1.71,-1.13,0.02,-0.13,-0.06,
3.847,-2.24,-1.71,-1.13,-0.02,-0.22,0.02,
3.849,-2.24,-1.71,-1.13,-0.06,-0.27,0.04,
3.853,-0.24,-1.24,-2.19,-0.06,-0.27,0.04,
3.854,-0.24,-1.24,-2.19,-0.11,-0.27,0.04,
3.855,-0.24,-1.24,-2.19,-0.15,-0.27,0.02,
3.859,1.25,-0.10,-1.84,-0.15,-0.27,0.02,
3.86,1.25,-0.10,-1.84,-0.16,-0.27,-0.00,
3.861,1.25,-0.10,-1.84,-0.16,-0.26,-0.03,
3.861,1.68,-0.09,-1.29,-0.16,-0.26,-0.03,
3.862,1.68,-0.09,-1.29,-0.15,-0.25,-0.07,
3.865,1.68,-0.09,-1.29,-0.13,-0.24,-0.11,
3.868,1.90,-0.47,-1.11,-0.13,-0.24,-0.11,
3.869,1.90,-0.47,-1.11,-0.12,-0.22,-0.16,
3.869,1.90,-0.47,-1.11,-0.10,-0.20,-0.20,
3.874,0.83,-1.05,-0.82,-0.10,-0.20,-0.20,
3.875,0.83,-1.05,-0.82,-0.09,-0.20,-0.21,
3.875,0.83,-1.05,-0.82,-0.06,-0.20,-0.20,
3.878,-0.22,-1.49,-0.53,-0.06,-0.20,-0.20,
3.878,-0.22,-1.49,-0.53,-0.04,-0.19,-0.20,
3.879,-0.22,-1.49,-0.53,-0.02,-0.18,-0.20,
3.882,-0.44,-1.13,-0.49,-0.02,-0.18,-0.20,
3.883,-0.44,-1.13,-0.49,0.00,-0.16,-0.20,
3.883,-0.44,-1.13,-0.49,0.02,-0.15,-0.19,
3.887,-0.41,-0.56,-0.38,0.02,-0.15,-0.19,
3.887,-0.41,-0.56,-0.38,0.04,-0.15,-0.19,
3.892,-0.41,-0.56,-0.38,0.04,-0.15,-0.17,
3.893,-0.43,-0.23,-0.43,0.04,-0.15,-0.17,
3.894,-0.43,-0.23,-0.43,0.04,-0.15,-0.16,
3.894,-0.43,-0.23,-0.43,0.04,-0.15,-0.15,
3.897,-0.44,0.26,-0.44,0.04,-0.15,-0.15,
3.898,-0.44,0.26,-0.44,0.03,-0.15,-0.14,
3.899,-0.44,0.26,-0.44,0.02,-0.14,-0.13,
3.902,-0.67,0.57,-0.33,0.02,-0.14,-0.13,
3.903,-0.67,0.57,-0.33,0.02,-0.14,-0.11,
3.907,-1.14,0.56,0.03,0.02,-0.14,-0.11,
3.908,-1.14,0.56,0.03,0.01,-0.12,-0.10,
3.909,-1.14,0.56,0.03,0.02,-0.12,-0.07,
3.909,-1.14,0.56,0.03,0.02,-0.10,-0.05,
3.913,-0.87,0.54,0.25,0.02,-0.10,-0.05,
3.914,-0.87,0.54,0.25,0.03,-0.09,-0.04,
3.915,-0.87,0.54,0.25,0.02,-0.08,-0.04,
3.916,-0.65,0.61,0.32,0.02,-0.08,-0.04,
3.917,-0.65,0.61,0.32,0.02,-0.08,-0.03,
3.921,-0.65,0.61,0.32,0.01,-0.09,-0.02,
3.929,-0.81,0.52,0.23,0.01,-0.09,-0.02,
3.93,-0.81,0.52,0.23,0.01,-0.08,-0.00,
3.93,-0.81,0.52,0.23,-0.01,-0.07,0.02,
3.931,-1.80,-0.22,-0.48,-0.01,-0.07,0.02,
3.931,-1.80,-0.22,-0.48,-0.05,-0.07,0.08,
3.932,-1.80,-0.22,-0.48,-0.09,-0.08,0.14,
3.932,-1.44,-0.45,-0.52,-0.09,-0.08,0.14,
3.933,-1.44,-0.45,-0.52,-0.13,-0.06,0.15,
3.935,-1.44,-0.45,-0.52,-0.15,-0.04,0.15,
3.94,-0.72,0.34,-0.35,-0.15,-0.04,0.15,
3.941,-0.72,0.34,-0.35,-0.17,-0.03,0.14,
3.942,-0.72,0.34,-0.35,-0.18,-0.03,0.15,
3.942,-1.95,-1.19,-1.01,-0.18,-0.03,0.15,
3.943,-1.95,-1.19,-1.01,-0.23,0.02,0.19,
3.947,-1.95,-1.19,-1.01,-0.30,0.07,0.25,
3.948,-4.20,-3.01,-1.45,-0.30,0.07,0.25,
3.948,-4.20,-3.01,-1.45,-0.38,0.08,0.37,
3.949,-4.20,-3.01,-1.45,-0.43,0.05,0.38,
3.953,-0.68,-0.67,-0.09,-0.43,0.05,0.38,
3.953,-0.68,-0.67,-0.09,-0.47,0.02,0.33,
3.956,-0.68,-0.67,-0.09,-0.50,-0.02,0.29,
3.957,0.10,1.98,0.30,-0.50,-0.02,0.29,
3.957,0.10,1.98,0.30,-0.52,-0.04,0.29,
3.961,0.10,1.98,0.30,-0.54,-0.06,0.31,
3.962,0.42,2.12,0.61,-0.54,-0.06,0.31,
3.963,0.42,2.12,0.61,-0.53,-0.08,0.31,
3.965,0.42,2.12,0.61,-0.52,-0.08,0.27,
3.967,0.99,0.94,0.30,-0.52,-0.08,0.27,
3.967,0.99,0.94,0.30,-0.51,-0.04,0.25,
3.969,0.99,0.94,0.30,-0.50,-0.02,0.26,
3.972,0.68,0.59,0.60,-0.50,-0.02,0.26,
3.973,0.68,0.59,0.60,-0.46,0.00,0.27,
3.975,0.68,0.59,0.60,-0.40,0.03,0.25,
3.978,1.00,-0.79,0.66,-0.40,0.03,0.25,
3.978,1.00,-0.79,0.66,-0.35,0.07,0.23,
3.98,1.00,-0.79,0.66,-0.31,0.14,0.22,
3.983,0.28,-3.14,-0.22,-0.31,0.14,0.22,
3.984,0.28,-3.14,-0.22,-0.29,0.21,0.20,
3.985,0.28,-3.14,-0.22,-0.25,0.25,0.16,
3.988,0.28,-3.14,-0.22,-0.22,0.26,0.13,
3.989,0.75,-2.13,0.50,-0.22,0.26,0.13,
3.993,0.75,-2.13,0.50,-0.20,0.27,0.12,
3.994,0.36,0.07,-0.66,-0.20,0.27,0.12,
3.995,0.36,0.07,-0.66,-0.24,0.31,0.16,
3.995,0.36,0.07,-0.66,-0.27,0.32,0.19,
3.998,0.36,0.07,-0.66,-0.27,0.30,0.19,
3.999,1.21,1.48,0.11,-0.27,0.30,0.19,
3.999,1.21,1.48,0.11,-0.27,0.30,0.18,
4.003,2.03,0.91,0.85,-0.27,0.30,0.18,
4.004,2.03,0.91,0.85,-0.25,0.31,0.14,
4.009,2.03,0.91,0.85,-0.23,0.32,0.10,
4.012,1.82,-0.36,1.78,-0.23,0.32,0.10,
4.013,1.82,-0.36,1.78,-0.20,0.32,0.07,
4.014,1.82,-0.36,1.78,-0.16,0.30,0.05,
4.014,1.29,-0.51,2.64,-0.16,0.30,0.05,
4.015,1.29,-0.51,2.64,-0.12,0.27,0.03,
4.016,1.29,-0.51,2.64,-0.09,0.23,0.03,
4.02,0.50,-0.42,2.58,-0.09,0.23,0.03,
4.022,0.50,-0.42,2.58,-0.06,0.18,0.03,
4.022,0.50,-0.42,2.58,-0.05,0.13,0.04,
4.023,0.48,-0.16,2.31,-0.05,0.13,0.04,
4.024,0.48,-0.16,2.31,-0.04,0.08,0.04,
4.025,0.48,-0.16,2.31,-0.03,0.04,0.02,
4.027,0.87,0.47,2.00,-0.03,0.04,0.02,
4.028,0.87,0.47,2.00,-0.02,0.01,0.01,
4.03,0.87,0.47,2.00,-0.01,-0.02,0.04,
4.032,-0.29,-0.60,1.57,-0.01,-0.02,0.04,
4.033,-0.29,-0.60,1.57,-0.01,-0.05,0.06,
4.034,-0.29,-0.60,1.57,-0.02,-0.07,0.07,
4.037,-0.20,-0.67,1.09,-0.02,-0.07,0.07,
4.037,-0.20,-0.67,1.09,-0.03,-0.09,0.08,
4.045,-0.20,-0.67,1.09,-0.04,-0.10,0.09,
4.046,-0.16,-0.44,0.84,-0.04,-0.10,0.09,
4.046,-0.16,-0.44,0.84,-0.05,-0.12,0.10,
4.047,-0.16,-0.44,0.84,-0.06,-0.14,0.11,
4.047,-0.11,-0.27,0.69,-0.06,-0.14,0.11,
4.048,-0.11,-0.27,0.69,-0.08,-0.16,0.12,
4.05,-0.11,-0.27,0.69,-0.09,-0.18,0.12,
4.054,-0.15,-0.04,0.44,-0.09,-0.18,0.12,
4.054,-0.15,-0.04,0.44,-0.10,-0.19,0.13,
4.055,-0.15,-0.04,0.44,-0.10,-0.19,0.13,
4.06,-0.38,0.13,0.16,-0.10,-0.19,0.13,
4.061,-0.38,0.13,0.16,-0.11,-0.20,0.14,
4.062,-0.38,0.13,0.16,-0.12,-0.20,0.16,
4.062,-1.07,-0.11,-0.40,-0.12,-0.20,0.16,
4.063,-1.07,-0.11,-0.40,-0.14,-0.20,0.18,
4.065,-1.07,-0.11,-0.40,-0.18,-0.18,0.22,
4.067,-0.45,0.22,-0.91,-0.18,-0.18,0.22,
4.068,-0.45,0.22,-0.91,-0.21,-0.19,0.21,
4.07,-0.45,0.22,-0.91,-0.21,-0.19,0.18,
4.074,-0.07,0.70,-0.26,-0.21,-0.19,0.18,
4.075,-0.07,0.70,-0.26,-0.19,-0.18,0.17,
4.075,-0.07,0.70,-0.26,-0.19,-0.16,0.17,
4.078,-0.89,0.45,-1.05,-0.19,-0.16,0.17,
4.079,-0.89,0.45,-1.05,-0.18,-0.13,0.18,
4.079,-0.89,0.45,-1.05,-0.18,-0.09,0.19,
4.084,-1.31,0.04,-1.54,-0.18,-0.09,0.19,
4.085,-1.31,0.04,-1.54,-0.18,-0.06,0.21,
4.085,-1.31,0.04,-1.54,-0.21,-0.02,0.25,
4.089,-1.38,-0.10,-2.18,-0.21,-0.02,0.25,
4.09,-1.38,-0.10,-2.18,-0.25,0.00,0.27,
4.091,-1.38,-0.10,-2.18,-0.26,-0.00,0.25,
4.094,-0.37,0.43,-0.94,-0.26,-0.00,0.25,
4.095,-0.37,0.43,-0.94,-0.24,-0.02,0.23,
4.095,-0.37,0.43,-0.94,-0.23,-0.02,0.22,
4.099,-1.11,0.33,-1.34,-0.23,-0.02,0.22,
4.099,-1.11,0.33,-1.34,-0.23,-0.02,0.24,
4.1,-1.11,0.33,-1.34,-0.24,-0.02,0.25,
4.102,-1.49,0.09,-1.82,-0.24,-0.02,0.25,
4.103,-1.49,0.09,-1.82,-0.26,-0.03,0.26,
4.105,-1.49,0.09,-1.82,-0.27,-0.05,0.27,
4.108,-1.11,0.04,-1.65,-0.27,-0.05,0.27,
4.109,-1.11,0.04,-1.65,-0.28,-0.06,0.27,
4.109,-1.11,0.04,-1.65,-0.28,-0.07,0.28,
4.114,-1.40,-0.04,-1.45,-0.28,-0.07,0.28,
4.114,-1.40,-0.04,-1.45,-0.29,-0.09,0.29,
4.115,-1.40,-0.04,-1.45,-0.29,-0.13,0.31,
4.119,-1.44,-0.11,-1.29,-0.29,-0.13,0.31,
4.12,-1.44,-0.11,-1.29,-0.30,-0.18,0.32,
4.12,-1.44,-0.11,-1.29,-0.30,-0.23,0.33,
4.128,-1.25,-0.19,-1.38,-0.30,-0.23,0.33,
4.129,-1.25,-0.19,-1.38,-0.30,-0.25,0.34,
4.129,-1.25,-0.19,-1.38,-0.30,-0.28,0.35,
4.13,-1.32,-0.30,-1.54,-0.30,-0.28,0.35,
4.13,-1.32,-0.30,-1.54,-0.31,-0.30,0.36,
4.131,-1.32,-0.30,-1.54,-0.32,-0.34,0.37,
4.136,-1.30,-0.31,-1.59,-0.32,-0.34,0.37,
4.137,-1.30,-0.31,-1.59,-0.34,-0.37,0.39,
4.137,-1.30,-0.31,-1.59,-0.35,-0.41,0.39,
4.138,-1.19,-0.37,-1.48,-0.35,-0.41,0.39,
4.139,-1.19,-0.37,-1.48,-0.36,-0.45,0.40,
4.143,-1.19,-0.37,-1.48,-0.38,-0.49,0.41,
4.143,-1.06,-0.47,-1.40,-0.38,-0.49,0.41,
4.144,-1.06,-0.47,-1.40,-0.39,-0.52,0.42,
4.145,-1.06,-0.47,-1.40,-0.41,-0.54,0.43,
4.148,-1.06,-0.47,-1.40,-0.42,-0.57,0.43,
4.148,-0.97,-0.64,-1.34,-0.42,-0.57,0.43,
4.15,-0.97,-0.64,-1.34,-0.43,-0.59,0.45,
4.153,-0.97,-0.64,-1.34,-0.44,-0.61,0.48,
4.154,-1.10,-0.93,-1.19,-0.44,-0.61,0.48,
4.154,-1.10,-0.93,-1.19,-0.46,-0.63,0.52,
4.158,-1.95,-3.02,-0.85,-0.46,-0.63,0.52,
4.159,-1.95,-3.02,-0.85,-0.47,-0.68,0.57,
4.159,-1.95,-3.02,-0.85,-0.50,-0.70,0.57,
4.162,-0.38,-3.27,-1.77,-0.50,-0.70,0.57,
4.163,-0.38,-3.27,-1.77,-0.55,-0.67,0.52,
4.165,-0.38,-3.27,-1.77,-0.58,-0.67,0.47,
4.167,0.85,-1.50,-0.32,-0.58,-0.67,0.47,
4.167,0.85,-1.50,-0.32,-0.57,-0.75,0.43,
4.17,0.85,-1.50,-0.32,-0.57,-0.81,0.39,
4.175,1.41,-0.84,-0.60,-0.57,-0.81,0.39,
4.175,1.41,-0.84,-0.60,-0.57,-0.83,0.34,
4.176,1.41,-0.84,-0.60,-0.58,-0.81,0.29,
4.18,1.76,-0.13,-1.20,-0.58,-0.81,0.29,
4.181,1.76,-0.13,-1.20,-0.58,-0.80,0.25,
4.182,1.76,-0.13,-1.20,-0.58,-0.78,0.21,
4.182,1.83,-0.32,-1.43,-0.58,-0.78,0.21,
4.187,1.88,-0.49,-1.36,-0.58,-0.78,0.21,
4.188,1.88,-0.49,-1.36,-0.59,-0.74,0.17,
4.189,1.88,-0.49,-1.36,-0.59,-0.70,0.13,
4.189,1.88,-0.49,-1.36,-0.60,-0.67,0.10,
4.196,1.50,-0.52,-1.45,-0.60,-0.67,0.10,
4.199,1.12,-0.48,-1.67,-0.60,-0.67,0.10,
4.203,0.81,-0.31,-1.67,-0.60,-0.67,0.10,
4.204,0.81,-0.31,-1.67,-0.60,-0.64,0.07,
4.205,0.81,-0.31,-1.67,-0.62,-0.61,0.05,
4.205,0.81,-0.31,-1.67,-0.64,-0.57,0.04,
4.205,0.81,-0.31,-1.67,-0.67,-0.54,0.04,
4.211,0.86,-0.10,-1.08,-0.67,-0.54,0.04,
4.212,0.86,-0.10,-1.08,-0.71,-0.50,0.05,
4.213,0.86,-0.10,-1.08,-0.74,-0.47,0.06,
4.213,0.86,-0.10,-1.08,-0.77,-0.47,0.08,
4.214,0.86,-0.10,-1.08,-0.79,-0.47,0.09,
4.214,0.86,-0.10,-1.08,-0.82,-0.45,0.10,
4.215,0.83,0.05,-1.38,-0.82,-0.45,0.10,
4.215,0.83,0.05,-1.38,-0.85,-0.43,0.11,
4.216,0.83,0.05,-1.38,-0.88,-0.40,0.12,
4.217,0.95,0.34,-1.63,-0.88,-0.40,0.12,
4.217,0.95,0.34,-1.63,-0.92,-0.36,0.13,
4.222,0.95,0.34,-1.63,-0.96,-0.30,0.15,
4.226,1.01,0.75,-1.75,-0.96,-0.30,0.15,
4.227,1.01,0.75,-1.75,-1.00,-0.24,0.17,
4.227,1.01,0.75,-1.75,-1.03,-0.20,0.20,
4.228,1.18,1.01,-1.32,-1.03,-0.20,0.20,
4.228,1.18,1.01,-1.32,-1.06,-0.17,0.22,
4.23,1.18,1.01,-1.32,-1.09,-0.13,0.25,
4.233,1.20,0.92,-1.07,-1.09,-0.13,0.25,
4.233,1.20,0.92,-1.07,-1.11,-0.10,0.27,
4.234,1.20,0.92,-1.07,-1.12,-0.08,0.28,
4.237,1.43,0.56,-0.51,-1.12,-0.08,0.28,
4.238,1.43,0.56,-0.51,-1.13,-0.09,0.29,
4.24,1.43,0.56,-0.51,-1.14,-0.10,0.29,
4.245,1.19,0.07,-0.12,-1.14,-0.10,0.29,
4.246,1.19,0.07,-0.12,-1.14,-0.11,0.31,
4.246,1.19,0.07,-0.12,-1.14,-0.13,0.31,
4.248,1.22,-0.48,0.20,-1.14,-0.13,0.31,
4.249,1.22,-0.48,0.20,-1.15,-0.16,0.31,
4.25,1.22,-0.48,0.20,-1.14,-0.21,0.29,
4.252,1.04,-0.77,0.34,-1.14,-0.21,0.29,
4.252,1.04,-0.77,0.34,-1.14,-0.24,0.29,
4.258,1.04,-0.77,0.34,-1.13,-0.29,0.29,
4.259,0.84,-0.88,0.54,-1.13,-0.29,0.29,
4.259,0.84,-0.88,0.54,-1.12,-0.33,0.28,
4.262,0.84,-0.88,0.54,-1.12,-0.38,0.28,
4.266,0.81,-1.00,0.53,-1.12,-0.38,0.28,
4.266,0.81,-1.00,0.53,-1.11,-0.43,0.27,
4.267,0.81,-1.00,0.53,-1.11,-0.48,0.26,
4.269,0.90,-1.05,0.46,-1.11,-0.48,0.26,
4.269,0.90,-1.05,0.46,-1.12,-0.53,0.23,
4.269,0.90,-1.05,0.46,-1.12,-0.57,0.21,
4.274,0.90,-1.05,0.46,-1.13,-0.60,0.19,
4.275,0.57,-1.29,0.16,-1.13,-0.60,0.19,
4.275,0.57,-1.29,0.16,-1.14,-0.62,0.18,
4.28,0.39,-1.27,0.12,-1.14,-0.62,0.18,
4.28,0.39,-1.27,0.12,-1.15,-0.65,0.16,
4.281,0.39,-1.27,0.12,-1.16,-0.69,0.15,
4.285,0.07,-1.12,0.18,-1.16,-0.69,0.15,
4.286,0.07,-1.12,0.18,-1.17,-0.71,0.16,
4.286,0.07,-1.12,0.18,-1.18,-0.73,0.17,
4.287,-0.18,-1.03,0.09,-1.18,-0.73,0.17,
4.291,-0.18,-1.03,0.09,-1.19,-0.75,0.17,
4.293,-0.18,-1.03,0.09,-1.21,-0.76,0.18,
4.293,-0.14,-0.94,0.10,-1.21,-0.76,0.18,
4.294,-0.14,-0.94,0.10,-1.22,-0.78,0.18,
4.295,-0.14,-0.94,0.10,-1.23,-0.80,0.18,
4.298,-0.29,-0.90,-0.07,-1.23,-0.80,0.18,
4.299,-0.29,-0.90,-0.07,-1.25,-0.80,0.18,
4.301,-0.29,-0.90,-0.07,-1.27,-0.80,0.19,
4.304,-0.40,-0.76,-0.16,-1.27,-0.80,0.19,
4.304,-0.40,-0.76,-0.16,-1.29,-0.79,0.20,
4.307,-0.40,-0.76,-0.16,-1.31,-0.79,0.20,
4.308,-0.35,-0.70,0.02,-1.31,-0.79,0.20,
4.309,-0.35,-0.70,0.02,-1.33,-0.80,0.20,
4.31,-0.35,-0.70,0.02,-1.34,-0.80,0.20,
4.314,-0.43,-0.48,-0.05,-1.34,-0.80,0.20,
4.315,-0.43,-0.48,-0.05,-1.36,-0.80,0.21,
4.315,-0.43,-0.48,-0.05,-1.38,-0.79,0.22,
4.319,-0.53,-0.35,-0.07,-1.38,-0.79,0.22,
4.319,-0.53,-0.35,-0.07,-1.40,-0.79,0.22,
4.32,-0.53,-0.35,-0.07,-1.42,-0.78,0.23,
4.326,-0.63,-0.33,-0.15,-1.42,-0.78,0.23,
4.327,-0.63,-0.33,-0.15,-1.44,-0.77,0.24,
4.328,-0.63,-0.33,-0.15,-1.46,-0.77,0.25,
4.328,-0.74,-0.34,-0.04,-1.46,-0.77,0.25,
4.329,-0.74,-0.34,-0.04,-1.47,-0.78,0.26,
4.332,-0.74,-0.34,-0.04,-1.49,-0.78,0.26,
4.334,-0.86,-0.29,-0.28,-1.49,-0.78,0.26,
4.335,-0.86,-0.29,-0.28,-1.50,-0.78,0.27,
4.336,-0.86,-0.29,-0.28,-1.52,-0.79,0.28,
4.34,-0.78,-0.17,-0.31,-1.52,-0.79,0.28,
4.345,-0.78,-0.17,-0.31,-1.54,-0.80,0.29,
4.346,-0.78,-0.17,-0.31,-1.55,-0.83,0.29,
4.346,-0.56,0.00,-0.23,-1.55,-0.83,0.29,
4.346,-0.56,0.00,-0.23,-1.57,-0.87,0.29,
4.347,-0.56,0.00,-0.23,-1.60,-0.88,0.29,
4.349,-0.69,-0.03,-0.69,-1.60,-0.88,0.29,
4.35,-0.69,-0.03,-0.69,-1.62,-0.89,0.29,
4.35,-0.69,-0.03,-0.69,-1.64,-0.91,0.30,
4.352,-0.69,-0.03,-0.69,-1.66,-0.93,0.30,
4.353,-0.68,-0.01,-0.84,-1.66,-0.93,0.30,
4.355,-0.68,-0.01,-0.84,-1.68,-0.95,0.30,
4.358,-0.57,0.06,-0.85,-1.68,-0.95,0.30,
4.36,-0.57,0.06,-0.85,-1.70,-0.97,0.30,
4.36,-0.57,0.06,-0.85,-1.71,-1.01,0.29,
4.363,-0.45,0.21,-0.92,-1.71,-1.01,0.29,
4.363,-0.45,0.21,-0.92,-1.73,-1.03,0.29,
4.366,-0.45,0.21,-0.92,-1.75,-1.03,0.29,
4.368,-0.75,0.14,-1.34,-1.75,-1.03,0.29,
4.368,-0.75,0.14,-1.34,-1.76,-1.03,0.31,
4.371,-0.75,0.14,-1.34,-1.78,-1.03,0.31,
4.373,-0.69,0.23,-1.25,-1.78,-1.03,0.31,
4.373,-0.69,0.23,-1.25,-1.78,-1.03,0.32,
4.38,-0.69,0.23,-1.25,-1.79,-1.05,0.33,
4.38,-0.44,0.24,-1.00,-1.79,-1.05,0.33,
4.38,-0.44,0.24,-1.00,-1.80,-1.07,0.33,
4.381,-0.44,0.24,-1.00,-1.80,-1.07,0.33,
4.384,-0.63,0.17,-1.05,-1.80,-1.07,0.33,
4.384,-0.63,0.17,-1.05,-1.80,-1.06,0.34,
4.386,-0.63,0.17,-1.05,-1.79,-1.03,0.35,
4.39,-0.71,0.10,-0.95,-1.79,-1.03,0.35,
4.391,-0.71,0.10,-0.95,-1.78,-1.01,0.36,
4.392,-0.71,0.10,-0.95,-1.76,-1.00,0.37,
4.394,-0.65,0.09,-0.77,-1.76,-1.00,0.37,
4.395,-0.65,0.09,-0.77,-1.75,-0.98,0.38,
4.396,-0.65,0.09,-0.77,-1.73,-0.97,0.38,
4.398,-0.69,0.03,-0.65,-1.73,-0.97,0.38,
4.398,-0.69,0.03,-0.65,-1.71,-0.95,0.39,
4.402,-0.69,0.03,-0.65,-1.68,-0.92,0.40,
4.405,-0.67,0.03,-0.46,-1.68,-0.92,0.40,
4.405,-0.67,0.03,-0.46,-1.66,-0.90,0.40,
4.409,-0.67,0.03,-0.46,-1.63,-0.90,0.41,
4.41,-0.47,-0.02,-0.03,-1.63,-0.90,0.41,
4.41,-0.47,-0.02,-0.03,-1.60,-0.90,0.42,
4.411,-0.47,-0.02,-0.03,-1.58,-0.92,0.42,
4.414,-0.41,-0.16,-0.07,-1.58,-0.92,0.42,
4.415,-0.41,-0.16,-0.07,-1.55,-0.89,0.42,
4.415,-0.41,-0.16,-0.07,-1.52,-0.85,0.43,
4.418,-0.60,-0.20,0.17,-1.52,-0.85,0.43,
4.418,-0.60,-0.20,0.17,-1.49,-0.83,0.44,
4.425,-0.60,-0.20,0.17,-1.45,-0.83,0.46,
4.426,-0.52,-0.31,0.46,-1.45,-0.83,0.46,
4.426,-0.52,-0.31,0.46,-1.42,-0.80,0.46,
4.427,-0.52,-0.31,0.46,-1.39,-0.75,0.47,
4.429,-0.58,-0.32,0.69,-1.39,-0.75,0.47,
4.429,-0.58,-0.32,0.69,-1.36,-0.72,0.49,
4.433,-0.58,-0.32,0.69,-1.32,-0.68,0.49,
4.434,-0.50,-0.38,1.19,-1.32,-0.68,0.49,
4.434,-0.50,-0.38,1.19,-1.28,-0.67,0.50,
4.436,-0.50,-0.38,1.19,-1.25,-0.65,0.50,
4.439,-0.52,-0.46,1.20,-1.25,-0.65,0.50,
4.44,-0.52,-0.46,1.20,-1.22,-0.60,0.51,
4.443,-0.44,-0.51,1.47,-1.22,-0.60,0.51,
4.444,-0.44,-0.51,1.47,-1.19,-0.56,0.52,
4.445,-0.44,-0.51,1.47,-1.15,-0.52,0.52,
4.446,-0.44,-0.51,1.47,-1.11,-0.48,0.52,
4.448,-0.27,-0.48,1.68,-1.11,-0.48,0.52,
4.448,-0.27,-0.48,1.68,-1.07,-0.44,0.52,
4.452,-0.27,-0.48,1.68,-1.04,-0.41,0.52,
4.454,-0.15,-0.38,1.76,-1.04,-0.41,0.52,
4.458,-0.15,-0.38,1.76,-1.00,-0.38,0.52,
4.458,-0.03,-0.19,1.87,-1.00,-0.38,0.52,
4.46,-0.03,-0.19,1.87,-0.97,-0.35,0.52,
4.461,-0.03,-0.19,1.87,-0.94,-0.33,0.51,
4.461,-0.03,-0.19,1.87,-0.91,-0.31,0.50,
4.465,0.08,0.11,1.90,-0.91,-0.31,0.50,
4.465,0.08,0.11,1.90,-0.88,-0.29,0.49,
4.47,0.06,0.27,1.95,-0.88,-0.29,0.49,
4.471,0.06,0.27,1.95,-0.84,-0.27,0.49,
4.471,0.06,0.27,1.95,-0.81,-0.24,0.49,
4.472,0.06,0.27,1.95,-0.78,-0.22,0.48,
4.474,0.06,0.27,1.95,-0.74,-0.21,0.48,
4.475,0.19,0.41,1.88,-0.74,-0.21,0.48,
4.477,0.19,0.41,1.88,-0.72,-0.19,0.47,
4.48,0.20,0.49,1.69,-0.72,-0.19,0.47,
4.48,0.20,0.49,1.69,-0.69,-0.18,0.46,
4.481,0.20,0.49,1.69,-0.66,-0.17,0.45,
4.484,0.29,0.61,1.56,-0.66,-0.17,0.45,
4.485,0.29,0.61,1.56,-0.64,-0.15,0.44,
4.486,0.29,0.61,1.56,-0.61,-0.14,0.43,
4.491,0.41,0.71,1.50,-0.61,-0.14,0.43,
4.492,0.41,0.71,1.50,-0.59,-0.15,0.42,
4.492,0.41,0.71,1.50,-0.57,-0.14,0.42,
4.494,0.42,0.65,1.40,-0.57,-0.14,0.42,
4.495,0.42,0.65,1.40,-0.55,-0.12,0.41,
4.495,0.42,0.65,1.40,-0.52,-0.11,0.40,
4.499,0.49,0.54,1.42,-0.52,-0.11,0.40,
4.499,0.49,0.54,1.42,-0.50,-0.10,0.39,
4.501,0.49,0.54,1.42,-0.47,-0.09,0.38,
4.505,0.53,0.43,1.29,-0.47,-0.09,0.38,
4.505,0.53,0.43,1.29,-0.45,-0.08,0.36,
4.51,0.53,0.43,1.29,-0.43,-0.07,0.35,
4.511,0.53,0.43,1.29,-0.41,-0.07,0.34,
4.511,0.63,0.47,1.19,-0.41,-0.07,0.34,
4.512,0.63,0.47,1.19,-0.40,-0.07,0.32,
4.515,0.52,0.56,1.22,-0.40,-0.07,0.32,
4.517,0.52,0.56,1.22,-0.39,-0.07,0.31,
4.517,0.52,0.56,1.22,-0.37,-0.07,0.29,
4.518,0.54,0.43,1.22,-0.37,-0.07,0.29,
4.518,0.54,0.43,1.22,-0.36,-0.07,0.27,
4.526,0.54,0.43,1.22,-0.34,-0.07,0.26,
4.526,0.47,0.38,1.28,-0.34,-0.07,0.26,
4.527,0.47,0.38,1.28,-0.32,-0.07,0.24,
4.527,0.47,0.38,1.28,-0.31,-0.07,0.22,
4.528,0.40,0.37,1.28,-0.31,-0.07,0.22,
4.529,0.40,0.37,1.28,-0.30,-0.08,0.21,
4.532,0.40,0.37,1.28,-0.28,-0.08,0.19,
4.534,0.39,0.52,1.21,-0.28,-0.08,0.19,
4.534,0.39,0.52,1.21,-0.27,-0.09,0.17,
4.537,0.39,0.52,1.21,-0.27,-0.10,0.16,
4.539,0.37,0.63,1.13,-0.27,-0.10,0.16,
4.541,0.37,0.63,1.13,-0.26,-0.10,0.14,
4.541,0.37,0.63,1.13,-0.25,-0.11,0.12,
4.544,0.29,0.69,1.09,-0.25,-0.11,0.12,
4.544,0.29,0.69,1.09,-0.24,-0.12,0.11,
4.546,0.29,0.69,1.09,-0.23,-0.13,0.09,
4.549,0.25,0.68,1.05,-0.23,-0.13,0.09,
4.549,0.25,0.68,1.05,-0.22,-0.14,0.07,
4.552,0.25,0.68,1.05,-0.21,-0.15,0.06,
4.554,0.26,0.67,0.96,-0.21,-0.15,0.06,
4.555,0.26,0.67,0.96,-0.21,-0.16,0.04,
4.559,0.26,0.67,0.96,-0.20,-0.17,0.02,
4.559,0.25,0.56,0.93,-0.20,-0.17,0.02,
4.56,0.25,0.56,0.93,-0.20,-0.18,0.01,
4.562,0.25,0.56,0.93,-0.19,-0.18,-0.01,
4.564,0.35,0.62,0.84,-0.19,-0.18,-0.01,
4.564,0.35,0.62,0.84,-0.19,-0.19,-0.02,
4.565,0.35,0.62,0.84,-0.18,-0.19,-0.04,
4.57,0.48,0.72,0.72,-0.18,-0.19,-0.04,
4.57,0.48,0.72,0.72,-0.18,-0.19,-0.06,
4.575,0.56,0.75,0.62,-0.18,-0.19,-0.06,
4.576,0.56,0.75,0.62,-0.17,-0.18,-0.07,
4.576,0.56,0.75,0.62,-0.16,-0.17,-0.09,
4.577,0.56,0.75,0.62,-0.15,-0.16,-0.10,
4.58,0.66,0.76,0.57,-0.15,-0.16,-0.10,
4.58,0.66,0.76,0.57,-0.14,-0.16,-0.12,
4.581,0.66,0.76,0.57,-0.14,-0.16,-0.14,
4.583,0.95,0.81,0.61,-0.14,-0.16,-0.14,
4.587,0.95,0.81,0.61,-0.13,-0.16,-0.16,
4.587,0.95,0.81,0.61,-0.12,-0.14,-0.18,
4.59,0.63,0.81,0.57,-0.12,-0.14,-0.18,
4.591,0.63,0.81,0.57,-0.11,-0.11,-0.18,
4.592,0.63,0.81,0.57,-0.09,-0.09,-0.19,
4.595,0.77,0.98,0.58,-0.09,-0.09,-0.19,
4.595,0.77,0.98,0.58,-0.07,-0.07,-0.21,
4.598,0.77,0.98,0.58,-0.05,-0.05,-0.22,
4.6,0.90,1.29,0.54,-0.05,-0.05,-0.22,
4.601,0.90,1.29,0.54,-0.03,-0.04,-0.23,
4.601,0.90,1.29,0.54,-0.01,-0.02,-0.24,
4.605,0.90,1.47,0.40,-0.01,-0.02,-0.24,
4.609,0.90,1.47,0.40,0.00,0.00,-0.25,
4.61,0.90,1.47,0.40,0.02,0.02,-0.26,
4.611,0.90,1.47,0.40,0.04,0.04,-0.27,
4.611,0.82,1.63,0.37,0.04,0.04,-0.27,
4.612,0.82,1.63,0.37,0.06,0.06,-0.28,
4.615,0.72,1.69,0.41,0.06,0.06,-0.28,
4.615,0.72,1.69,0.41,0.08,0.08,-0.28,
4.616,0.72,1.69,0.41,0.10,0.09,-0.29,
4.621,0.56,1.78,0.40,0.10,0.09,-0.29,
4.621,0.56,1.78,0.40,0.13,0.11,-0.29,
4.622,0.56,1.78,0.40,0.15,0.12,-0.30,
4.63,0.41,1.88,0.39,0.15,0.12,-0.30,
4.63,0.41,1.88,0.39,0.17,0.14,-0.30,
4.631,0.41,1.88,0.39,0.20,0.15,-0.31,
4.631,0.25,1.97,0.35,0.20,0.15,-0.31,
4.632,0.25,1.97,0.35,0.22,0.16,-0.31,
4.632,0.25,1.97,0.35,0.25,0.17,-0.31,
4.638,0.11,2.02,0.21,0.25,0.17,-0.31,
4.639,0.11,2.02,0.21,0.27,0.18,-0.31,
4.64,0.11,2.02,0.21,0.29,0.19,-0.31,
4.64,-0.06,1.87,0.05,0.29,0.19,-0.31,
4.641,-0.06,1.87,0.05,0.30,0.19,-0.30,
4.644,-0.05,1.91,-0.24,0.30,0.19,-0.30,
4.645,-0.05,1.91,-0.24,0.32,0.19,-0.30,
4.645,-0.05,1.91,-0.24,0.34,0.19,-0.30,
4.645,-0.05,1.91,-0.24,0.35,0.20,-0.30,
4.649,0.04,1.99,-0.54,0.35,0.20,-0.30,
4.65,0.04,1.99,-0.54,0.36,0.21,-0.30,
4.652,0.04,1.99,-0.54,0.37,0.22,-0.30,
4.654,-0.06,1.88,-0.68,0.37,0.22,-0.30,
4.654,-0.06,1.88,-0.68,0.38,0.22,-0.29,
4.655,-0.06,1.88,-0.68,0.40,0.23,-0.29,
4.659,-0.15,1.71,-0.85,0.40,0.23,-0.29,
4.661,-0.15,1.71,-0.85,0.41,0.23,-0.29,
4.661,-0.15,1.71,-0.85,0.42,0.24,-0.29,
4.664,-0.15,1.71,-0.85,0.43,0.25,-0.29,
4.665,-0.16,1.52,-1.03,0.43,0.25,-0.29,
4.666,-0.16,1.52,-1.03,0.44,0.26,-0.29,
4.67,-0.16,1.32,-1.21,0.44,0.26,-0.29,
4.671,-0.16,1.32,-1.21,0.45,0.26,-0.30,
4.671,-0.16,1.32,-1.21,0.46,0.27,-0.30,
4.674,-0.14,1.14,-1.39,0.46,0.27,-0.30,
4.677,-0.14,1.14,-1.39,0.47,0.28,-0.30,
4.678,-0.14,1.14,-1.39,0.48,0.30,-0.30,
4.679,-0.14,1.02,-1.54,0.48,0.30,-0.30,
4.679,-0.14,1.02,-1.54,0.49,0.32,-0.31,
4.683,-0.14,1.02,-1.54,0.49,0.34,-0.31,
4.684,-0.14,0.85,-1.64,0.49,0.34,-0.31,
4.685,-0.14,0.85,-1.64,0.50,0.36,-0.31,
4.686,-0.14,0.85,-1.64,0.51,0.38,-0.31,
4.688,-0.13,0.70,-1.76,0.51,0.38,-0.31,
4.689,-0.13,0.70,-1.76,0.52,0.39,-0.32,
4.692,-0.13,0.70,-1.76,0.52,0.41,-0.32,
4.694,-0.11,0.55,-1.96,0.52,0.41,-0.32,
4.695,-0.11,0.55,-1.96,0.52,0.42,-0.33,
4.697,-0.11,0.55,-1.96,0.52,0.43,-0.33,
4.698,-0.11,0.40,-2.10,0.52,0.43,-0.33,
4.698,-0.11,0.40,-2.10,0.51,0.44,-0.34,
4.701,-0.11,0.40,-2.10,0.51,0.43,-0.34,
4.703,-0.14,0.26,-2.08,0.51,0.43,-0.34,
4.707,-0.14,0.26,-2.08,0.51,0.43,-0.34,
4.708,-0.14,0.26,-2.08,0.51,0.42,-0.35,
4.709,-0.19,0.18,-2.01,0.51,0.42,-0.35,
4.709,-0.19,0.18,-2.01,0.50,0.41,-0.35,
4.712,-0.19,0.18,-2.01,0.50,0.39,-0.36,
4.714,-0.19,0.18,-2.01,0.51,0.38,-0.36,
4.714,-0.20,0.09,-2.10,0.51,0.38,-0.36,
4.716,-0.20,0.09,-2.10,0.51,0.36,-0.37,
4.718,-0.29,-0.01,-2.21,0.51,0.36,-0.37,
4.719,-0.29,-0.01,-2.21,0.51,0.34,-0.37,
4.722,-0.29,-0.01,-2.21,0.51,0.31,-0.38,
4.73,-0.38,-0.09,-2.28,0.51,0.31,-0.38,
4.731,-0.38,-0.09,-2.28,0.51,0.28,-0.37,
4.731,-0.38,-0.09,-2.28,0.51,0.25,-0.37,
4.732,-0.39,-0.15,-2.31,0.51,0.25,-0.37,
4.732,-0.39,-0.15,-2.31,0.51,0.22,-0.37,
4.733,-0.39,-0.15,-2.31,0.51,0.19,-0.37,
4.737,-0.40,-0.20,-2.34,0.51,0.19,-0.37,
4.737,-0.40,-0.20,-2.34,0.51,0.16,-0.36,
4.738,-0.40,-0.20,-2.34,0.51,0.13,-0.36,
4.746,-0.38,-0.09,-2.26,0.51,0.13,-0.36,
4.746,-0.38,-0.09,-2.26,0.52,0.09,-0.35,
4.747,-0.38,-0.09,-2.26,0.52,0.05,-0.34,
4.747,-0.27,0.11,-2.18,0.52,0.05,-0.34,
4.748,-0.27,0.11,-2.18,0.52,0.01,-0.33,
4.748,-0.27,0.11,-2.18,0.51,-0.02,-0.32,
4.749,-0.12,0.28,-2.40,0.51,-0.02,-0.32,
4.75,-0.12,0.28,-2.40,0.51,-0.04,-0.31,
4.752,-0.12,0.28,-2.40,0.50,-0.06,-0.31,
4.754,-0.04,0.54,-2.32,0.50,-0.06,-0.31,
4.755,-0.04,0.54,-2.32,0.48,-0.08,-0.29,
4.756,-0.04,0.54,-2.32,0.47,-0.10,-0.28,
4.76,-0.02,0.76,-2.13,0.47,-0.10,-0.28,
4.761,-0.02,0.76,-2.13,0.46,-0.13,-0.27,
4.761,-0.02,0.76,-2.13,0.44,-0.14,-0.26,
4.764,0.07,0.88,-2.38,0.44,-0.14,-0.26,
4.765,0.07,0.88,-2.38,0.42,-0.14,-0.26,
4.767,0.07,0.88,-2.38,0.39,-0.14,-0.25,
4.77,0.07,0.88,-2.38,0.37,-0.15,-0.24,
4.77,0.10,0.95,-2.30,0.37,-0.15,-0.24,
4.771,0.10,0.95,-2.30,0.35,-0.15,-0.23,
4.778,0.04,0.96,-2.24,0.35,-0.15,-0.23,
4.779,0.04,0.96,-2.24,0.32,-0.16,-0.23,
4.779,0.04,0.96,-2.24,0.29,-0.17,-0.22,
4.78,-0.10,0.91,-2.15,0.29,-0.17,-0.22,
4.78,-0.10,0.91,-2.15,0.26,-0.18,-0.21,
4.784,-0.10,0.91,-2.15,0.24,-0.19,-0.20,
4.786,-0.28,0.82,-1.94,0.24,-0.19,-0.20,
4.787,-0.28,0.82,-1.94,0.22,-0.22,-0.19,
4.787,-0.28,0.82,-1.94,0.19,-0.23,-0.18,
4.79,-0.42,0.54,-2.00,0.19,-0.23,-0.18,
4.791,-0.42,0.54,-2.00,0.16,-0.25,-0.17,
4.792,-0.42,0.54,-2.00,0.14,-0.27,-0.16,
4.795,-0.68,0.36,-1.90,0.14,-0.27,-0.16,
4.795,-0.68,0.36,-1.90,0.11,-0.30,-0.15,
4.798,-0.68,0.36,-1.90,0.08,-0.32,-0.14,
4.799,-0.93,0.15,-1.93,0.08,-0.32,-0.14,
4.799,-0.93,0.15,-1.93,0.05,-0.35,-0.13,
4.802,-0.93,0.15,-1.93,0.02,-0.38,-0.12,
4.805,-1.15,-0.06,-1.96,0.02,-0.38,-0.12,
4.806,-1.15,-0.06,-1.96,-0.01,-0.40,-0.11,
4.806,-1.15,-0.06,-1.96,-0.04,-0.44,-0.11,
4.809,-1.34,-0.22,-1.96,-0.04,-0.44,-0.11,
4.81,-1.34,-0.22,-1.96,-0.07,-0.47,-0.10,
4.813,-1.34,-0.22,-1.96,-0.11,-0.50,-0.10,
4.815,-1.53,-0.26,-1.98,-0.11,-0.50,-0.10,
4.815,-1.53,-0.26,-1.98,-0.14,-0.54,-0.09,
4.816,-1.53,-0.26,-1.98,-0.17,-0.58,-0.09,
4.82,-1.66,-0.17,-2.03,-0.17,-0.58,-0.09,
4.82,-1.66,-0.17,-2.03,-0.20,-0.62,-0.08,
4.826,-1.66,-0.17,-2.03,-0.23,-0.66,-0.08,
4.827,-1.93,0.02,-1.96,-0.23,-0.66,-0.08,
4.828,-1.93,0.02,-1.96,-0.25,-0.69,-0.07,
4.828,-1.93,0.02,-1.96,-0.28,-0.73,-0.06,
4.835,-1.99,0.18,-1.90,-0.28,-0.73,-0.06,
4.836,-1.99,0.18,-1.90,-0.30,-0.76,-0.05,
4.837,-1.99,0.18,-1.90,-0.32,-0.80,-0.04,
4.837,-2.04,0.34,-1.85,-0.32,-0.80,-0.04,
4.838,-2.04,0.34,-1.85,-0.34,-0.83,-0.03,
4.838,-2.04,0.34,-1.85,-0.36,-0.86,-0.03,
4.841,-2.11,0.56,-1.90,-0.36,-0.86,-0.03,
4.846,-2.11,0.56,-1.90,-0.37,-0.88,-0.02,
4.846,-2.11,0.56,-1.90,-0.38,-0.90,-0.01,
4.846,-1.97,0.87,-1.88,-0.38,-0.90,-0.01,
4.846,-1.97,0.87,-1.88,-0.39,-0.93,-0.02,
4.848,-1.97,0.87,-1.88,-0.40,-0.93,-0.01,
4.85,-2.28,1.14,-2.04,-0.40,-0.93,-0.01,
4.85,-2.28,1.14,-2.04,-0.39,-0.92,0.00,
4.853,-2.28,1.14,-2.04,-0.39,-0.90,0.03,
4.855,-2.21,1.45,-2.10,-0.39,-0.90,0.03,
4.856,-2.21,1.45,-2.10,-0.38,-0.88,0.04,
4.857,-2.21,1.45,-2.10,-0.37,-0.85,0.06,
4.859,-1.93,1.73,-2.25,-0.37,-0.85,0.06,
4.86,-1.93,1.73,-2.25,-0.35,-0.81,0.07,
4.864,-1.93,1.73,-2.25,-0.34,-0.78,0.08,
4.865,-1.52,1.90,-2.30,-0.34,-0.78,0.08,
4.865,-1.52,1.90,-2.30,-0.32,-0.74,0.10,
4.867,-1.52,1.90,-2.30,-0.30,-0.69,0.11,
4.871,-1.01,1.98,-2.31,-0.30,-0.69,0.11,
4.871,-1.01,1.98,-2.31,-0.28,-0.65,0.11,
4.875,-1.01,1.98,-2.31,-0.25,-0.61,0.12,
4.876,-0.52,2.05,-2.24,-0.25,-0.61,0.12,
4.876,-0.52,2.05,-2.24,-0.23,-0.57,0.12,
4.878,-0.52,2.05,-2.24,-0.21,-0.54,0.12,
4.88,-0.10,1.99,-2.12,-0.21,-0.54,0.12,
4.881,-0.10,1.99,-2.12,-0.18,-0.51,0.12,
4.883,-0.10,1.99,-2.12,-0.16,-0.48,0.12,
4.884,0.34,1.88,-1.90,-0.16,-0.48,0.12,
4.885,0.34,1.88,-1.90,-0.14,-0.47,0.11,
4.887,0.34,1.88,-1.90,-0.12,-0.45,0.10,
4.891,0.69,1.70,-1.72,-0.12,-0.45,0.10,
4.891,0.69,1.70,-1.72,-0.09,-0.44,0.09,
4.892,0.69,1.70,-1.72,-0.07,-0.42,0.08,
4.895,0.89,1.56,-1.48,-0.07,-0.42,0.08,
4.896,0.89,1.56,-1.48,-0.05,-0.42,0.07,
4.897,0.89,1.56,-1.48,-0.03,-0.41,0.06,
4.899,1.09,1.33,-1.31,-0.03,-0.41,0.06,
4.9,1.09,1.33,-1.31,-0.01,-0.41,0.04,
4.902,1.09,1.33,-1.31,0.01,-0.40,0.02,
4.905,1.19,1.04,-1.27,0.01,-0.40,0.02,
4.906,1.19,1.04,-1.27,0.03,-0.39,0.00,
4.914,1.19,1.04,-1.27,0.05,-0.37,-0.02,
4.915,1.15,0.76,-1.21,0.05,-0.37,-0.02,
4.915,1.15,0.76,-1.21,0.06,-0.35,-0.04,
4.916,1.15,0.76,-1.21,0.08,-0.33,-0.06,
4.916,1.03,0.40,-1.14,0.08,-0.33,-0.06,
4.917,1.03,0.40,-1.14,0.09,-0.31,-0.08,
4.917,1.03,0.40,-1.14,0.10,-0.28,-0.10,
4.923,1.03,0.40,-1.14,0.11,-0.26,-0.12,
4.924,0.84,-0.02,-1.00,0.11,-0.26,-0.12,
4.926,0.49,-0.56,-0.82,0.11,-0.26,-0.12,
4.927,0.49,-0.56,-0.82,0.12,-0.24,-0.14,
4.927,0.49,-0.56,-0.82,0.13,-0.21,-0.15,
4.93,0.49,-0.56,-0.82,0.14,-0.19,-0.17,
4.931,0.03,-1.26,-0.57,0.14,-0.19,-0.17,
4.931,0.03,-1.26,-0.57,0.15,-0.17,-0.17,
4.932,0.03,-1.26,-0.57,0.16,-0.14,-0.18,
4.935,-0.52,-2.08,-0.29,0.16,-0.14,-0.18,
4.935,-0.52,-2.08,-0.29,0.17,-0.13,-0.18,
4.937,-0.52,-2.08,-0.29,0.18,-0.12,-0.18,
4.939,-1.07,-2.95,0.01,0.18,-0.12,-0.18,
4.94,-1.07,-2.95,0.01,0.19,-0.13,-0.17,
4.943,-1.07,-2.95,0.01,0.20,-0.13,-0.17,
4.947,-1.57,-3.79,0.12,0.20,-0.13,-0.17,
4.948,-1.57,-3.79,0.12,0.21,-0.15,-0.15,
4.948,-1.57,-3.79,0.12,0.21,-0.18,-0.14,
4.949,-1.93,-4.51,-0.03,0.21,-0.18,-0.14,
4.949,-1.93,-4.51,-0.03,0.20,-0.21,-0.13,
4.954,-1.93,-4.51,-0.03,0.19,-0.25,-0.11,
4.955,-2.23,-4.94,-0.46,0.19,-0.25,-0.11,
4.955,-2.23,-4.94,-0.46,0.16,-0.30,-0.10,
4.959,-2.23,-4.94,-0.46,0.13,-0.35,-0.08,
4.961,-2.46,-5.10,-1.20,0.13,-0.35,-0.08,
4.961,-2.46,-5.10,-1.20,0.08,-0.40,-0.07,
4.962,-2.46,-5.10,-1.20,0.03,-0.46,-0.05,
4.965,-2.73,-5.02,-2.08,0.03,-0.46,-0.05,
4.966,-2.73,-5.02,-2.08,-0.04,-0.52,-0.03,
4.967,-2.73,-5.02,-2.08,-0.12,-0.58,-0.01,
4.971,-2.73,-5.02,-2.08,-0.21,-0.64,0.01,
4.972,-3.06,-4.85,-2.96,-0.21,-0.64,0.01,
4.976,-3.21,-4.67,-3.63,-0.21,-0.64,0.01,
4.977,-3.21,-4.67,-3.63,-0.31,-0.70,0.04,
4.977,-3.21,-4.67,-3.63,-0.42,-0.78,0.07,
4.978,-3.21,-4.67,-3.63,-0.53,-0.85,0.09,
4.981,-3.62,-4.44,-4.27,-0.53,-0.85,0.09,
4.982,-3.62,-4.44,-4.27,-0.65,-0.92,0.13,
4.983,-3.62,-4.44,-4.27,-0.77,-0.99,0.19,
4.985,-3.91,-4.23,-4.51,-0.77,-0.99,0.19,
4.986,-3.91,-4.23,-4.51,-0.88,-1.08,0.24,
4.987,-3.91,-4.23,-4.51,-1.00,-1.17,0.29,
4.991,-3.31,-3.96,-4.19,-1.00,-1.17,0.29,
4.992,-3.31,-3.96,-4.19,-1.10,-1.27,0.33,
4.993,-3.31,-3.96,-4.19,-1.20,-1.38,0.36,
4.995,-2.41,-3.43,-3.46,-1.20,-1.38,0.36,
4.996,-2.41,-3.43,-3.46,-1.27,-1.48,0.38,
4.999,-2.41,-3.43,-3.46,-1.32,-1.56,0.39,
4.999,-1.41,-2.49,-2.30,-1.32,-1.56,0.39,
5.0,-1.41,-2.49,-2.30,-1.35,-1.63,0.39,
5.003,-1.41,-2.49,-2.30,-1.34,-1.69,0.38,
